timestamp,q_w,q_x,q_y,q_z,acc_x,acc_y,acc_z,gyr_x,gyr_y,gyr_z
144039397,0.8391646,0.018298903,-0.050324135,0.5412351,1.1965971,-0.3830517,9.7851925,0.9652723,3.2661507,5.236408,0
144072731,0.83752126,0.01719404,-0.053614862,0.54349595,1.0376533,-0.37568852,9.85393,1.650755,2.1153119,3.9638388,0
144106065,0.836017,0.01684232,-0.05540076,0.5456398,1.2050169,-0.3008679,9.695243,0.16545486,-3.0887449,3.5981207,0
144139399,0.8347797,0.017836634,-0.055698313,0.54746896,1.0602406,-0.2620782,9.50551,3.2422066,1.0545486,2.2212584,0
144172733,0.8335,0.012757562,-0.050841156,0.5500275,1.0567857,0.059117485,9.780632,-7.455669,23.659056,5.969245,0
144206067,0.83303154,0.0138281,-0.04453703,0.5512566,0.7042461,-0.35823205,9.4881315,12.111317,16.860159,-0.25777417,0
144239401,0.83263665,0.016510919,-0.044976547,0.5517435,1.1616119,0.26234654,9.7500725,4.6627235,-6.9104285,-1.4614749,0
144272735,0.83224976,0.01858727,-0.044881735,0.5522686,1.0598595,-0.1334514,10.041492,2.8576384,-2.5377707,-1.4220046,0
144306069,0.8345748,0.021153666,-0.03976898,0.5490501,0.5154351,-0.0390648,10.272789,14.008014,9.892449,-16.597916,0
144339403,0.83414716,0.023522407,-0.03602599,0.5498612,1.690408,0.17506386,10.805644,12.28406,6.29769,2.630172,0
144372737,0.8315419,0.02150326,-0.040686376,0.55355275,1.3080554,0.21998088,11.212442,-15.774485,-8.134342,15.509568,0
144406071,0.82862943,0.016709687,-0.05115655,0.55720484,0.9476942,0.102617145,10.960144,-34.821568,-19.443111,16.67324,0
144439405,0.82620597,0.015251102,-0.0614176,0.5598028,1.0634173,-0.37399352,10.703097,-25.173445,-25.825401,11.496579,0
144472739,0.82505095,0.019687397,-0.06836614,0.56056166,1.3951385,-0.58076334,10.200784,-2.0387678,-27.89793,2.139161,0
144506073,0.82487464,0.025788566,-0.07366331,0.55990225,1.9829214,-0.33090267,10.112946,5.9567842,-26.146423,-3.0256915,0
144539407,0.8248858,0.030885898,-0.0784527,0.55897665,1.6051648,-0.27027935,10.126559,4.0478005,-22.488447,-4.1945534,0
144572741,0.8246947,0.03536056,-0.08410034,0.55817175,1.6826522,-0.053666174,10.03724,0.77227724,-24.034525,-2.6726046,0
144606075,0.823793,0.03784997,-0.090709604,0.5583048,1.6921545,-0.18101208,9.753605,-6.4028053,-23.211002,2.3140273,0
144639409,0.82343185,0.040265407,-0.09700844,0.55760926,1.5234194,-0.3430383,9.764172,-6.280986,-22.402529,-1.0598487,0
144672743,0.82334197,0.04300277,-0.10358566,0.5563532,1.9490182,-0.15671308,9.81224,-6.112857,-24.072393,-3.478523,0
144706077,0.8230903,0.04633191,-0.10991984,0.5552415,1.8469201,-0.35199705,9.50541,-3.8683653,-24.673143,-2.742786,0
144739411,0.8232017,0.052519295,-0.11473054,0.55354995,1.8527298,-0.40573138,9.389982,6.943637,-25.976286,-6.4191823,0
144772745,0.8235649,0.06040662,-0.118671104,0.5513702,2.3594728,-0.20257065,9.188908,13.243487,-26.872105,-9.118048,0
144806079,0.8243573,0.067988,-0.12147952,0.54868543,2.4595273,-0.13679546,9.211292,14.255136,-22.978916,-11.4640255,0
144839413,0.8251279,0.0755206,-0.12461755,0.5458307,2.4341288,0.004357461,9.272749,13.46122,-23.88806,-11.805527,0
144872747,0.8254149,0.08217175,-0.12819454,0.54360306,2.4838433,0.09765832,9.277994,10.530179,-23.58679,-8.616465,0
144906081,0.825448,0.089880876,-0.13234717,0.5413331,2.477748,0.04530453,9.131291,12.535231,-27.4125,-8.561515,0
144939415,0.8258384,0.09716411,-0.13636892,0.5384735,2.8432713,0.36379975,8.965564,11.219532,-26.351398,-10.742371,0
144972749,0.8257505,0.1017622,-0.14046627,0.5367028,3.1896648,0.36680725,8.880127,4.088844,-21.422192,-5.4585533,0
145006083,0.8252435,0.105406664,-0.14500359,0.5355714,2.7686691,0.27985075,8.984633,1.0321118,-20.869762,-2.2511206,0
145039417,0.82498074,0.110484436,-0.14872739,0.5339292,3.0394406,0.13763705,8.686045,6.281718,-21.35148,-5.1611376,0
145072751,0.82515156,0.115526125,-0.15187587,0.531707,3.3828318,0.18653612,8.87661,6.834882,-19.648554,-7.8165183,0
145106085,0.8259634,0.12055988,-0.15464546,0.5285213,3.3290381,0.17103483,8.656557,6.8074036,-18.599537,-11.88426,0
145139419,0.82720345,0.12699257,-0.15466385,0.5250585,3.4502404,0.3386913,8.380241,15.516761,-13.200316,-15.351105,0
145172753,0.8287281,0.13411467,-0.15404417,0.52105045,3.4453843,0.42829728,8.443901,18.25025,-12.699122,-18.066353,0
145206087,0.8302297,0.14031167,-0.15275368,0.5173953,3.8614311,0.81722397,8.210463,17.040968,-8.944454,-16.843521,0
145239421,0.831446,0.143186,-0.15217468,0.51481867,3.752796,0.94633263,8.679875,6.9675736,-4.6060476,-11.159683,0
145272755,0.83198404,0.14568318,-0.15322727,0.5129333,3.6092157,0.9475876,8.631766,3.6796837,-8.605774,-6.9750614,0
145306089,0.8328663,0.14579155,-0.15456164,0.5110668,4.070043,1.0743861,8.761126,-3.8298454,-5.0085883,-6.1203666,0
145339423,0.83382434,0.14297149,-0.15687406,0.5095948,4.0643744,1.0050027,8.665362,-13.791217,-2.363425,-3.0727131,0
145372757,0.8346582,0.13979492,-0.15888956,0.50848514,3.9562461,0.8821033,8.781254,-14.0558405,-0.7309821,-1.7697723,0
145406091,0.8354953,0.1374655,-0.16096734,0.5070902,3.669318,0.7205949,8.971438,-11.896933,-2.522184,-3.0289772,0
145439425,0.8362917,0.13745067,-0.16235225,0.50533706,3.8863378,0.8016959,8.746033,-4.2172694,-4.7919292,-5.5965147,0
145472759,0.83659524,0.138688,-0.16326877,0.5041996,3.8747044,0.75573176,8.851618,0.7631854,-5.593914,-3.8871717,0
145506093,0.83684796,0.13946338,-0.16509606,0.5029701,3.9432037,0.9249561,8.941252,-2.1782913,-7.4977593,-3.3659916,0
145539427,0.83725375,0.13887304,-0.16722684,0.5017526,4.137878,1.1256988,8.668715,-6.7369995,-5.911776,-2.6598434,0
145572761,0.8373982,0.13696824,-0.16949207,0.5012749,4.2361026,1.17268,8.856582,-10.267138,-3.789655,0.7645179,0
145606095,0.83725876,0.13475686,-0.17247999,0.50108784,4.1495004,0.9930405,8.663554,-12.159329,-5.3453016,2.6353712,0
145639429,0.83682567,0.13480495,-0.17394333,0.5012925,4.3592777,0.94933105,8.509202,-2.7102218,-4.8050213,2.241173,0
145672763,0.8362834,0.13504152,-0.17517905,0.50170326,4.3666315,0.8524224,8.84075,-1.6507328,-4.386228,2.8224087,0
145706097,0.8358101,0.13616453,-0.17591001,0.50193286,4.508732,0.71260935,8.5060835,1.6024879,-4.467541,1.4246268,0
145739431,0.8353708,0.13668787,-0.17539433,0.5027019,4.5936418,0.72939056,8.835666,2.3260076,0.4971073,2.697789,0
145772765,0.8349617,0.1348799,-0.17646405,0.50349474,4.555518,0.8175574,9.481951,-7.1223288,0.04239866,4.8674006,0
145806099,0.8342993,0.1303737,-0.17984916,0.5045808,4.603346,0.7883729,9.665567,-18.607487,-1.9449502,8.868748,0
145839433,0.83296335,0.12625197,-0.18456696,0.50613034,4.296315,0.4525503,9.58773,-19.25021,-6.653116,11.737037,0
145872767,0.83134884,0.12544703,-0.18830273,0.50760645,4.501152,0.4627247,9.278848,-7.9726334,-9.854565,9.484182,0
145906101,0.82982963,0.12631711,-0.18994382,0.5092626,4.579076,0.2823047,9.024286,0.53061587,-6.6383667,7.8537135,0
145939435,0.8286121,0.13045205,-0.18884571,0.51060915,4.5404434,0.3259985,8.7322235,14.312818,-4.4586477,3.1190255,0
145972769,0.82821876,0.13426237,-0.18484709,0.51172185,4.6330676,0.57030034,8.70196,17.946123,4.841538,-0.079963244,0
146006103,0.82851654,0.1364012,-0.1774774,0.5132806,4.294161,0.32148427,8.302399,19.066805,18.0648,-0.51937926,0
146039437,0.82913095,0.13995966,-0.16661122,0.51496977,4.00969,0.3773746,8.079706,29.231506,25.803751,-3.2332249,0
146072771,0.83009154,0.14184673,-0.15514402,0.51648635,4.0180473,0.7167865,8.328827,25.280148,30.618563,-3.6902962,0
146106105,0.83162427,0.14045922,-0.14563867,0.51716703,3.37242,0.49442905,8.513655,11.730923,30.746527,-4.403819,0
146139439,0.8331384,0.14110932,-0.13985719,0.5161478,2.958242,0.36422017,8.339176,10.142359,15.591731,-8.476599,0
146172773,0.8344938,0.14054991,-0.1361628,0.5150977,3.1563973,0.6371345,8.644004,3.0935323,11.610732,-6.710545,0
146206107,0.83528686,0.13817547,-0.13798623,0.5139684,3.0996418,0.7171667,9.010061,-11.615134,-1.3627841,-2.4357793,0
146239441,0.8350594,0.1359537,-0.14157073,0.5139555,3.4902992,0.6280927,8.538281,-13.241534,-6.6917434,3.329313,0
146272775,0.8351425,0.13243154,-0.14333414,0.5142511,3.5474367,0.76575327,8.835765,-13.731744,1.1360129,3.4394655,0
146306109,0.8358648,0.12703335,-0.14496128,0.51398325,3.6119847,0.7486654,9.0709715,-19.442493,4.8926005,1.5521224,0
146339443,0.8363073,0.11697149,-0.14747696,0.5149353,3.859718,0.6909201,9.162574,-33.69127,10.978573,8.263468,0
146372777,0.83598274,0.10143642,-0.15120907,0.51766706,3.3674927,0.2157646,9.076692,-50.3808,17.514503,18.00036,0
146406111,0.8355697,0.08679971,-0.15051053,0.521187,3.080923,-0.43077865,8.475446,-39.4455,28.856068,18.393887,0
146439445,0.83570063,0.074645504,-0.14436324,0.5245875,3.602175,-0.12975901,8.875999,-22.73331,40.31779,14.142433,0
146472779,0.836022,0.062812544,-0.13945368,0.52694845,3.188766,-0.46370643,9.164199,-24.609776,36.065132,10.966292,0
146506113,0.83687204,0.05158175,-0.1333077,0.52840686,2.6634476,-0.58510464,8.831221,-21.164051,38.606075,6.848032,0
146539447,0.83793724,0.04212208,-0.123432815,0.52995425,2.3194234,-0.757429,8.783699,-9.267795,46.22578,5.2272086,0
146572781,0.83909947,0.03409881,-0.11204318,0.5312213,2.260402,-0.7077634,8.836125,-2.4762013,47.970158,3.4016922,0
146606115,0.8402178,0.028457703,-0.100380674,0.5321167,1.906193,-0.7162289,8.98026,4.777584,44.352703,1.4514707,0
146639449,0.8411468,0.02566101,-0.09093755,0.53248847,1.5921258,-0.6824984,9.21615,8.792062,32.614895,-0.4864314,0
146672783,0.841796,0.025721362,-0.082688786,0.5328044,1.3166409,-0.6671242,9.149337,14.8998,23.80955,-0.93102556,0
146706117,0.84280175,0.026397647,-0.072532766,0.53266066,1.3553882,-0.46055132,9.131732,20.036222,28.230377,-3.264003,0
146739451,0.84391624,0.026190987,-0.06165808,0.53227615,1.3292598,-0.29154,9.390139,18.734747,31.92924,-4.0076585,0
146772785,0.84504354,0.025358073,-0.052587114,0.53150094,1.0164475,-0.16169482,9.618274,13.53953,27.805824,-4.870015,0
146806119,0.8461119,0.023396363,-0.04530237,0.53056127,0.818191,0.0067357942,9.851579,6.970675,24.628855,-4.8800282,0
146839453,0.8466152,0.020484488,-0.039889153,0.5303134,0.7653821,-0.05282042,9.5886755,0.93240714,20.862556,-1.5368738,0
146872787,0.84675413,0.019884314,-0.033254616,0.5305717,0.6024995,-0.06642634,9.327,9.986178,20.169853,0.1974081,0
146906121,0.8466887,0.019637443,-0.02431052,0.5311703,0.58934605,0.10335781,9.598029,15.28011,26.233057,1.3633081,0
146939455,0.84690577,0.01895017,-0.015897082,0.53116757,0.41726774,0.029579502,9.763019,12.956113,25.471088,-0.8288173,0
146972789,0.8470193,0.019958152,-0.008116833,0.5311253,0.24554394,0.14777823,9.530538,16.751007,20.51318,-0.8065326,0
147006123,0.8469703,0.020158945,0.0021979932,0.5312535,0.086467475,0.29166925,9.715164,19.048815,29.36024,-0.16286756,0
147039457,0.846723,0.01853269,0.011620071,0.53158396,-0.07112636,0.38845763,10.100367,12.112734,30.098616,0.83716995,0
147072791,0.84648514,0.016835636,0.019011358,0.53180665,-0.24198592,0.36497018,10.028815,8.205211,24.295578,0.6343076,0
147106125,0.846207,0.014733995,0.027358845,0.5319473,-0.43152374,0.44620138,9.996604,8.794114,27.799862,0.38880226,0
147139459,0.8459313,0.011919644,0.035889693,0.5319496,-0.5742835,0.40734565,9.961992,7.0795035,29.61181,-0.09358363,0
147172793,0.84561557,0.010625807,0.04409049,0.5318627,-0.6475845,0.44283757,9.5603075,10.928402,25.860802,-0.07721673,0
147206127,0.84508884,0.010082019,0.05323038,0.5318737,-0.69578123,0.5596063,9.42655,14.830822,27.24982,0.67494535,0
147239461,0.844565,0.008479792,0.06273103,0.5316984,-0.97954994,0.5425292,9.781882,12.465239,30.228495,-0.075801924,0
147272795,0.8441211,0.0068794545,0.0700477,0.5315127,-1.2350446,0.6361403,9.698592,8.500334,23.856733,-0.18513668,0
147306129,0.8434972,0.0062279133,0.07624752,0.5316581,-1.3040404,0.69749665,9.630752,9.154955,18.916298,1.3640928,0
147339463,0.84259987,0.005142853,0.08186473,0.5322568,-1.6066961,0.7647769,9.897393,6.7348976,18.084349,3.0792038,0
147372797,0.8419474,0.003948803,0.08789611,0.5323377,-1.5864549,0.8217279,9.674474,7.333873,19.377419,1.0995759,0
147406131,0.8412842,0.0033949236,0.09451823,0.53225535,-1.5115439,0.91541344,9.594421,10.328449,19.906368,0.8362319,0
147439465,0.84059703,0.0017638125,0.1002395,0.53230214,-1.6659983,0.93912154,9.932031,5.530571,19.283041,0.9158672,0
147472799,0.83993006,-0.00054326764,0.10560055,0.5323211,-1.9393952,0.96462524,9.777511,2.9388523,19.472956,0.5697992,0
147506133,0.8391918,-0.0012337969,0.11188152,0.5322014,-2.0359912,1.0062531,9.6364565,9.35174,19.181257,0.8929317,0
147539467,0.8383893,-0.0014118484,0.11800144,0.532144,-2.1401715,1.1649754,9.797606,10.51645,17.790327,1.3910565,0
147572801,0.837631,-0.0016744274,0.12357893,0.5320715,-2.264016,1.2122996,9.710044,9.287067,16.352636,1.2338308,0
147606135,0.8367055,-0.00085393584,0.12980898,0.5320459,-2.2440364,1.2169098,9.177462,13.579007,16.308498,2.143057,0
147639469,0.83549553,0.00093234074,0.13779849,0.53193796,-2.2678716,1.3870476,9.053588,19.609154,19.717873,2.8684201,0
147672803,0.83412886,0.0015332652,0.14489247,0.5321964,-2.5762105,1.5594416,9.591431,14.383689,19.381285,3.651642,0
147706137,0.8328738,0.0010229897,0.15071994,0.53254473,-2.7108123,1.5841703,9.327559,8.828008,17.710913,3.1631062,0
147739471,0.83121127,0.00012455563,0.15781057,0.5330893,-2.6541157,1.6894723,8.919543,9.920538,22.231138,4.269036,0
147772805,0.8290637,-0.0026317122,0.16501132,0.5342451,-2.7830877,1.6813711,9.030328,4.4631333,26.201084,5.897101,0
147806139,0.82680064,-0.0060391137,0.17179638,0.5355841,-2.943791,1.4794747,8.895884,1.7354702,26.26644,6.2614794,0
147839473,0.8247181,-0.009779414,0.1787411,0.5364663,-2.9958124,1.583907,8.919286,1.3660457,27.223154,4.4426317,0
147872807,0.82274896,-0.013062726,0.18569669,0.5370571,-3.196393,1.48421,8.816915,2.8678217,26.344982,3.6926675,0
147906141,0.8208092,-0.014957679,0.19241402,0.53761095,-3.295804,1.5047276,8.647918,6.3925385,23.079157,4.416912,0
147939475,0.81856614,-0.017422996,0.19992396,0.53821605,-3.5745778,1.571188,8.86332,6.2080193,26.554213,4.7938495,0
147972809,0.81620246,-0.020163951,0.2073234,0.53891,-3.6994395,1.6372101,9.142261,5.172384,26.818384,5.081291,0
148006143,0.81424403,-0.022402076,0.21205771,0.5399411,-3.9707053,1.8102088,9.171428,1.4456104,18.09051,5.45768,0
148039477,0.8123305,-0.025365846,0.21556076,0.5413035,-4.0505824,1.7972524,9.160814,-3.1044638,15.919553,5.683939,0
148072811,0.81022334,-0.029257616,0.21939068,0.5427246,-3.9762442,1.8996859,9.038877,-5.14482,18.687082,5.551933,0
148106145,0.80805284,-0.03288557,0.22330001,0.5441566,-3.9552033,1.9751796,8.79074,-4.2826343,18.463388,5.905607,0
148139479,0.80568784,-0.03594836,0.22708422,0.54590094,-4.096323,2.1549733,8.824979,-3.2276137,17.172003,7.5493145,0
148172813,0.80316705,-0.038041238,0.23102112,0.54781836,-3.9801102,2.0022304,8.594771,-0.43447027,15.876831,9.087995,0
148206147,0.7999555,-0.039326265,0.23682961,0.54994226,-4.1891065,2.0192585,8.675998,5.0505157,20.050617,11.839529,0
148239481,0.79664886,-0.04046794,0.24193662,0.5524306,-4.444595,2.1156747,8.977667,3.7962098,17.882488,13.040103,0
148272815,0.7936333,-0.041042965,0.2455197,0.5551412,-4.583345,2.070696,8.790044,2.3009112,12.35838,13.353939,0
148306149,0.7905881,-0.041472048,0.24817562,0.5582648,-4.548782,2.137633,8.820521,0.5696704,9.511863,14.530174,0
148339483,0.78761566,-0.04186329,0.25005457,0.5615888,-4.5819063,2.1139295,8.878895,-0.9824238,7.237342,14.8563175,0
148372817,0.78451383,-0.042527225,0.25187495,0.56505626,-4.5356293,2.125499,8.772719,-1.9752982,7.700206,15.252103,0
148406151,0.78134143,-0.042865,0.2539886,0.56846994,-4.658207,2.1727767,8.744004,-0.48999858,7.928761,15.570945,0
148439485,0.7779783,-0.043205023,0.2561998,0.572053,-4.608237,2.347172,8.706237,-0.48473543,8.33469,16.411419,0
148472819,0.77471864,-0.04199673,0.25750622,0.5759672,-4.646601,2.243024,8.778892,1.5923077,2.732136,18.320778,0
148506153,0.7717587,-0.03990239,0.25789502,0.57990235,-4.473885,2.326912,8.695582,2.16202,-1.7286158,18.43658,0
148539487,0.7681616,-0.03919963,0.2594135,0.5840341,-4.451503,2.4252555,8.602959,0.45755097,4.5912194,19.147987,0
148572821,0.7644697,-0.03812132,0.26105782,0.5882021,-4.500574,2.506588,8.644317,1.6518368,4.2561893,19.783384,0
148606155,0.7609212,-0.036408924,0.2618453,0.5925457,-4.4767213,2.598246,8.632362,1.4403354,0.57800835,20.408628,0
148639489,0.7570678,-0.03490879,0.2624415,0.59728926,-4.501769,2.6206033,8.65232,0.090243764,0.74016404,21.85712,0
148672823,0.75311667,-0.032582644,0.2617655,0.60268795,-4.497393,2.6540458,8.76175,-0.97831106,-4.252769,24.35411,0
148706157,0.7493223,-0.03089411,0.26035938,0.6080912,-4.3614535,2.6736248,8.665331,-4.1290708,-4.957808,23.38618,0
148739491,0.7449901,-0.030250812,0.25918907,0.6139185,-4.3623233,2.6550477,8.536689,-6.766202,-1.7234882,24.691069,0
148772825,0.74089974,-0.029388659,0.25680822,0.6198818,-4.433264,2.6133347,8.665573,-8.855967,-5.518625,24.601727,0
148806159,0.7372493,-0.027019914,0.2533866,0.6257225,-4.190254,2.5894341,8.4905615,-7.078174,-11.75953,24.582867,0
148839493,0.7335254,-0.024945581,0.25147712,0.63093394,-3.9973633,2.6409495,8.2502985,-4.027208,-7.17296,23.034815,0
148872827,0.7291414,-0.023577431,0.25143683,0.6360632,-3.8575385,2.663257,8.228174,-1.742414,-0.3502757,23.8094,0
148906161,0.7250985,-0.022746071,0.25075907,0.6409641,-3.925163,2.7751548,8.567259,-4.2570977,-1.048809,21.976866,0
148939495,0.72126704,-0.022930946,0.24819586,0.64625615,-3.9819894,2.8842397,8.735703,-11.266002,-3.7155888,21.46059,0
148972829,0.71771526,-0.024542663,0.24550985,0.6511586,-4.0681663,2.7646973,8.585817,-14.723115,-1.0590999,18.64635,0
149006163,0.71393156,-0.025568472,0.24388504,0.6558722,-4.018245,2.6894917,8.473755,-10.761562,0.44868308,19.289553,0
149039497,0.71031564,-0.025718966,0.24219184,0.66040397,-3.943393,2.552283,8.60757,-8.596534,-1.8263123,19.200075,0
149072831,0.70692796,-0.025910841,0.24054047,0.6646216,-3.8225315,2.4825654,8.471614,-8.309479,-1.7958574,17.896637,0
149106165,0.7034679,-0.02707176,0.23956876,0.66858566,-3.7286656,2.516277,8.508005,-8.897639,2.150898,16.71414,0
149139499,0.70009667,-0.028245954,0.23837698,0.67249054,-3.7801154,2.5148575,8.664077,-9.368551,1.5843425,16.343908,0
149172833,0.6968725,-0.02865026,0.23684178,0.6763535,-3.739969,2.5707486,8.6053705,-8.249672,-1.1371772,16.509567,0
149206167,0.6936769,-0.028581668,0.23582458,0.67998713,-3.675101,2.6135921,8.571119,-5.717975,-0.99482685,16.335402,0
149239501,0.6908397,-0.028455295,0.23494421,0.6831779,-3.6164908,2.706843,8.594269,-4.8626704,-1.0491958,14.506156,0
149272835,0.6877764,-0.029024392,0.2342165,0.6864866,-3.6141312,2.7155771,8.577299,-6.274826,1.1210046,14.769471,0
149306169,0.6846959,-0.029183771,0.23334537,0.68984765,-3.7157884,2.697775,8.718079,-5.6881986,-0.17610717,15.25166,0
149339503,0.6816504,-0.02851974,0.23213112,0.6932926,-3.6985378,2.7480202,8.690529,-4.6265173,-2.9745429,15.996621,0
149372837,0.67855656,-0.027948322,0.23165871,0.6965013,-3.6111636,2.7849984,8.720604,-2.892619,-0.9562919,15.560971,0
149406171,0.67549264,-0.02691634,0.23037423,0.69993794,-3.5736897,2.8366663,8.903066,-3.941619,-3.9977555,16.310976,0
149439505,0.6724339,-0.02590268,0.22836344,0.70357084,-3.5036852,2.909871,8.789131,-5.8885217,-5.65887,16.67117,0
149472839,0.66940016,-0.025930624,0.22686917,0.70693827,-3.478173,2.8720462,8.793959,-6.8417487,-1.9403554,15.222421,0
149506173,0.66649795,-0.026219895,0.22554111,0.71008754,-3.4629395,2.8334749,8.742281,-6.860033,-1.0061153,14.2101965,0
149539507,0.6635478,-0.02710271,0.22465304,0.71309257,-3.4421518,2.8252542,8.781672,-7.041498,1.4995228,13.576655,0
149572841,0.66071963,-0.02744502,0.22280498,0.7162781,-3.417636,2.801987,8.896755,-8.291772,-2.124966,14.017693,0
149606175,0.6577456,-0.02715409,0.22081512,0.7196347,-3.3649383,2.7099824,8.709681,-7.3472834,-3.909718,15.23742,0
149639509,0.65468585,-0.027219655,0.21951264,0.722814,-3.329902,2.6588664,8.760681,-6.3243876,-1.3926699,14.8465605,0
149672843,0.6518537,-0.027798997,0.21771675,0.72588795,-3.2654123,2.6945221,8.907111,-8.602486,-1.3864975,13.613876,0
149706177,0.64915144,-0.02867341,0.21547031,0.7289395,-3.2311943,2.5872707,8.79266,-10.354987,-1.751288,12.977266,0
149739511,0.6462613,-0.029382022,0.21397974,0.73191243,-3.2063906,2.615466,8.860459,-8.046373,-0.33008486,13.475596,0
149772845,0.643412,-0.029592693,0.21292065,0.7347178,-3.2939608,2.5342326,8.986322,-5.722708,-0.6348127,13.415426,0
149806179,0.6408578,-0.029084023,0.21171954,0.73731285,-3.1793692,2.596429,9.016171,-4.298136,-2.9578393,12.725387,0
149839513,0.63820356,-0.029345049,0.20967335,0.74018383,-3.2122173,2.6413639,9.140541,-8.341577,-2.8184497,12.946234,0
149872847,0.6356017,-0.029653724,0.20737527,0.74305224,-3.2288263,2.5671055,9.0378065,-9.074868,-3.285436,12.753483,0
149906181,0.6326773,-0.029961748,0.20464568,0.7462857,-3.1038473,2.5622103,9.198653,-10.463968,-4.0365157,14.336405,0
149939515,0.6297057,-0.03052566,0.20046547,0.7499018,-3.0680566,2.5430927,9.410234,-15.00937,-6.535516,14.964154,0
149972849,0.6269998,-0.030258033,0.19556566,0.75346524,-2.9996674,2.4552588,9.201635,-14.993309,-10.408236,14.666677,0
150006183,0.62436116,-0.02911981,0.19216813,0.75656915,-2.8964987,2.4244125,9.174933,-8.904014,-9.419913,14.246759,0
150039517,0.62159747,-0.027281139,0.18896516,0.75971365,-2.7960489,2.4284663,9.357648,-6.928741,-10.740821,15.143192,0
150072851,0.61898345,-0.025030762,0.18486102,0.7629281,-2.6113427,2.439896,9.27782,-8.428749,-13.837536,15.085373,0
150106185,0.6164003,-0.023074333,0.18001649,0.7662325,-2.650916,2.406723,9.358928,-11.047344,-14.661561,14.941653,0
150139519,0.6139311,-0.022142211,0.17408837,0.7696048,-2.6163304,2.3732688,9.503246,-16.100246,-14.333192,14.067805,0
150172853,0.6111047,-0.021969935,0.16668867,0.7734878,-2.4601686,2.274157,9.695143,-21.925976,-15.251401,15.524032,0
150206187,0.60807246,-0.020704033,0.15860417,0.77760166,-2.3682828,2.0694208,9.659466,-21.588442,-19.492168,17.133432,0
150239521,0.6051304,-0.019055257,0.1502925,0.7815794,-2.246353,1.9850411,9.596209,-21.305035,-21.02707,16.805265,0
150272855,0.6027838,-0.017085362,0.14172232,0.78503174,-2.1164467,1.800701,9.556853,-21.01066,-22.700342,14.267464,0
150306189,0.6003743,-0.0152773885,0.13455921,0.7881695,-1.9546825,1.7158166,9.335859,-17.38819,-19.29794,13.796773,0
150339523,0.598204,-0.012694845,0.12750962,0.79103243,-1.8501507,1.6474745,9.494331,-15.332208,-21.259325,12.953441,0
150372857,0.5962187,-0.009695958,0.12045974,0.79367423,-1.6082913,1.5374498,9.305812,-14.361561,-22.462656,12.184081,0
150406191,0.5943307,-0.0072056223,0.114454165,0.7960022,-1.430111,1.5369126,9.342716,-12.41218,-18.960356,11.103055,0
150439525,0.5927569,-0.0044260845,0.10786636,0.79811317,-1.4141775,1.5256528,9.477874,-13.315029,-21.0554,9.899444,0
150472859,0.5911084,-0.0021419232,0.10180215,0.8001391,-1.2371289,1.4568793,9.379481,-12.851794,-18.598846,9.75727,0
150506193,0.5893388,-0.00040794033,0.09589136,0.8021749,-1.1696863,1.2953147,9.550652,-13.547029,-16.728271,9.918997,0
150539527,0.58803123,0.0017991408,0.090909936,0.8037112,-0.97798806,1.060778,9.473949,-9.848295,-16.297777,7.7964587,0
150572861,0.58699656,0.0031156961,0.08663974,0.80493414,-0.8167356,1.0934776,9.622742,-9.572233,-12.477731,6.1315155,0
150606195,0.5861538,0.004264758,0.08164304,0.8060645,-0.8976635,1.0289071,9.784448,-11.882834,-13.52876,5.3747334,0
150639529,0.5854995,0.0063521573,0.07703647,0.8069792,-0.82008934,1.0301158,9.616545,-8.839355,-15.394834,4.684319,0
150672863,0.5850228,0.008107113,0.072514266,0.80772793,-0.7357464,1.1081116,9.775856,-9.225069,-14.349635,3.7718866,0
150706197,0.5844859,0.010050643,0.06711901,0.80856085,-0.6014015,1.0565476,9.807154,-11.2849,-16.607353,4.178631,0
150739531,0.5842454,0.011454226,0.06182158,0.80913794,-0.47187757,0.9108182,9.614594,-12.042849,-14.982163,2.7131069,0
150772865,0.5839375,0.013322571,0.057155225,0.80967444,-0.4551193,0.8228686,9.627228,-9.335704,-14.988298,2.8927338,0
150806199,0.5836868,0.0154993655,0.052950658,0.8101023,-0.38248703,0.83133924,9.693237,-7.4035864,-14.932539,2.5587606,0
150839533,0.5836894,0.017072573,0.048775125,0.810331,-0.23973158,0.8168445,9.702871,-8.505829,-13.245673,1.3429779,0
150872867,0.5837729,0.019375036,0.04516172,0.81042844,-0.23468825,0.6112005,9.54387,-5.453013,-14.164421,0.9442121,0
150906201,0.5839028,0.021470293,0.041638643,0.81047076,-0.14587384,0.6417556,9.721103,-5.600855,-13.413008,0.672806,0
150939535,0.58437324,0.023170419,0.03750092,0.810287,0.011941701,0.6309567,9.796039,-8.090613,-13.605938,-0.7381414,0
150972869,0.5852541,0.025164505,0.033878837,0.80975115,-0.017765816,0.5565104,9.616296,-6.0432134,-13.463179,-2.5895674,0
151006203,0.5861527,0.027247224,0.031035349,0.80914736,-0.02251421,0.6080621,9.744602,-3.683172,-12.148086,-2.8287754,0
151039537,0.5868196,0.029525109,0.02733118,0.8087177,0.035558052,0.64288443,9.820382,-5.675211,-14.384039,-1.7278643,0
151072871,0.5876192,0.031809535,0.023600714,0.8081679,0.28573507,0.48680627,9.512789,-5.732315,-14.47828,-2.3331134,0
151106205,0.5886304,0.033323657,0.02008753,0.8074653,0.43152526,0.6179851,9.667887,-6.6905427,-11.925172,-3.3169692,0
151139539,0.58969766,0.03447753,0.015283465,0.8067432,0.37506163,0.59170765,9.682939,-11.009616,-13.536244,-3.3968995,0
151172873,0.59076047,0.036607843,0.012183851,0.8059241,0.39819196,0.4348711,9.232453,-4.2963314,-12.796922,-3.733401,0
151206207,0.5920539,0.038553447,0.010736031,0.8049041,0.52891773,0.557026,9.550277,-0.114681035,-8.960982,-4.997692,0
151239541,0.59341043,0.039696705,0.008028089,0.80388045,0.5754285,0.5317307,9.706958,-5.2460227,-9.302955,-5.0477986,0
151272875,0.5949462,0.040631037,0.004608828,0.8027247,0.5726208,0.40014714,9.518598,-7.6594586,-10.19504,-5.7253113,0
151306209,0.59649974,0.04211726,0.0027668308,0.80150276,0.684594,0.27539277,9.362703,-2.1763659,-8.497666,-6.1198697,0
151339543,0.5978651,0.043355063,0.0018516678,0.8004215,0.75702864,0.41341308,9.638821,-0.10266859,-5.8831325,-5.4499383,0
151372877,0.59944826,0.044262864,-0.00059673656,0.79918855,0.7576724,0.38382554,9.849891,-5.032354,-8.143937,-6.1385293,0
151406211,0.601149,0.045352876,-0.0033757153,0.7978419,0.8144458,0.37502703,9.752407,-5.58175,-9.338289,-6.647401,0
151439545,0.602939,0.046391178,-0.005529436,0.79641813,0.9389146,0.33136103,9.699585,-3.989159,-7.909119,-7.1515203,0
151472879,0.60471153,0.047346808,-0.0073962617,0.7950017,0.8280664,0.33687636,9.751207,-3.3722503,-7.0797334,-7.1358376,0
151506213,0.60649073,0.04878202,-0.00981656,0.7935321,0.8409089,0.33563763,9.814178,-3.8901365,-9.547892,-7.187829,0
151539547,0.608342,0.050283216,-0.012221696,0.7919862,1.0343287,0.41122738,9.693544,-3.7266371,-9.703413,-7.5490212,0
151572881,0.61021066,0.0516211,-0.014314377,0.7904261,1.0136057,0.4633525,9.689673,-3.2277892,-8.601422,-7.683794,0
151606215,0.6118958,0.053082366,-0.016197793,0.7889888,0.9828764,0.35466483,9.637759,-2.3678596,-8.48157,-6.976905,0
151639549,0.61358356,0.053886857,-0.018404972,0.7875739,1.0001624,0.45997992,9.727469,-4.630393,-7.376368,-6.844582,0
151672883,0.6152183,0.05551406,-0.021321334,0.78611076,1.1748035,0.36254302,9.702239,-4.8144183,-11.111637,-6.7282934,0
151706217,0.61686593,0.056848455,-0.024037443,0.78464454,1.3505782,0.37137443,9.504355,-4.9014373,-9.890821,-6.7961993,0
151739551,0.6186778,0.05722467,-0.026238196,0.7831187,1.2893538,0.17697208,9.561154,-5.5870614,-6.2036366,-7.397223,0
151772885,0.62029684,0.05832395,-0.028492916,0.7816766,1.3116193,0.22729391,9.693231,-4.149438,-8.26132,-6.7567,0
151806219,0.62184083,0.05937206,-0.031054817,0.78027207,1.3683758,0.17896417,9.668221,-5.068353,-8.774666,-6.4139314,0
151839553,0.62339354,0.060764264,-0.032591727,0.7788622,1.447693,0.10851202,9.490254,-1.5863634,-7.5019846,-6.6973276,0
151872887,0.6250218,0.062249012,-0.033675622,0.7773923,1.5030463,0.2024024,9.664212,-0.1993119,-6.77647,-7.1376867,0
151906221,0.62661636,0.06361455,-0.03501263,0.7759377,1.4277574,0.18131363,9.638062,-1.1262113,-6.997124,-6.9522185,0
151939555,0.6282352,0.06514844,-0.03644199,0.77443415,1.4847975,0.19650063,9.549352,-1.0226719,-7.650974,-7.124177,0
151972889,0.6297121,0.06663553,-0.03775359,0.77304405,1.6075836,0.19868284,9.519416,-0.76737666,-7.260108,-6.5269246,0
152006223,0.6310714,0.06750227,-0.03908888,0.771793,1.6133405,0.22886838,9.622125,-2.1320484,-5.6411457,-5.833074,0
152039557,0.6326259,0.06839051,-0.041226383,0.7703297,1.5899507,0.21963692,9.640478,-4.2917604,-7.4577327,-6.633783,0
152072891,0.6342798,0.06941458,-0.043019522,0.7687784,1.6340748,0.22754987,9.583031,-3.1244214,-7.073316,-7.1923456,0
152106225,0.63606673,0.06961313,-0.044958316,0.7671715,1.6973238,0.13916157,9.684457,-5.3535686,-5.2001095,-7.51374,0
152139559,0.637532,0.070137456,-0.047321096,0.76576406,1.6755698,0.10290153,9.749686,-5.653008,-6.986138,-6.1798806,0
152172893,0.6390238,0.070998475,-0.049537193,0.7642997,1.7844161,0.03787934,9.648966,-4.5448785,-7.5592103,-6.4650083,0
152206227,0.6406979,0.07167408,-0.051378988,0.7627118,1.8655381,0.011390538,9.643022,-4.0343328,-6.244923,-7.277648,0
152239561,0.64257824,0.07212632,-0.053269297,0.7609559,1.8667852,-0.06535426,9.713631,-4.734061,-5.7663703,-8.138706,0
152272895,0.6448042,0.07303452,-0.054604433,0.7588889,1.8977473,-0.12860034,9.711144,-2.4133103,-5.743102,-9.948268,0
152306229,0.646889,0.07456836,-0.055794887,0.7568761,1.8966793,-0.052941248,9.725309,-0.5998762,-7.063804,-9.612318,0
152339563,0.64926213,0.07631614,-0.057048935,0.7545727,1.966231,-0.02152635,9.570972,-0.41750723,-7.778065,-11.032697,0
152372897,0.651756,0.077001296,-0.058363788,0.75224906,1.9797846,0.100995004,9.702754,-2.9831946,-5.1346726,-11.168161,0
152406231,0.654083,0.07809934,-0.060758483,0.7499228,1.8960338,0.021200914,9.760148,-4.809675,-8.655176,-10.542275,0
152439565,0.65626436,0.080003895,-0.0626469,0.7476575,2.1283758,0.1490753,9.447379,-1.6398705,-9.609297,-10.334613,0
152472899,0.6584579,0.08165368,-0.064413615,0.74539715,2.1873984,0.17287868,9.606005,-1.9119996,-8.67053,-10.343242,0
152506233,0.6606541,0.083597355,-0.066854805,0.74301964,2.2016306,0.08030626,9.555353,-3.007882,-10.978908,-10.49802,0
152539567,0.66301775,0.08536971,-0.06885687,0.74052554,2.3012712,0.17892751,9.431548,-2.3549542,-9.534986,-11.283391,0
152572901,0.66544616,0.08695685,-0.07103661,0.7379524,2.3463047,0.10047638,9.493051,-3.274786,-9.471234,-11.540998,0
152606235,0.66750187,0.08948743,-0.07302243,0.7355957,2.2781394,-0.024985949,9.388913,-0.46283588,-11.443723,-10.393253,0
152639569,0.6695513,0.09183784,-0.074493505,0.73329234,2.4210036,0.074979305,9.422765,0.4405364,-9.789488,-10.369023,0
152672903,0.6716792,0.094322614,-0.076162264,0.73085546,2.4705377,0.044145387,9.424696,0.19035742,-10.60147,-10.849958,0
152706237,0.67409354,0.096218444,-0.077885285,0.72819924,2.6023426,0.16397986,9.453519,-1.4586416,-9.239274,-11.909118,0
152739571,0.67663264,0.09729068,-0.07980541,0.7254887,2.512153,0.025476655,9.421904,-3.920413,-7.6143904,-12.066216,0
152772905,0.67903686,0.09869941,-0.081435755,0.7228664,2.5348763,0.070374265,9.305862,-2.3449006,-7.7851624,-11.712831,0
152806239,0.68141484,0.10026326,-0.083496615,0.72017336,2.605168,0.09556381,9.385128,-3.065101,-9.205075,-11.711855,0
152839573,0.6838883,0.10209568,-0.0858619,0.7172873,2.722594,0.11925696,9.197476,-3.279654,-10.619608,-12.37488,0
152872907,0.68656594,0.10352581,-0.087491,0.71432155,2.840131,0.15622438,9.126773,-2.510226,-7.8592463,-13.211659,0
152906241,0.68918157,0.10504126,-0.08883263,0.71141,2.8387818,0.1560719,9.094955,-1.5697755,-7.3833528,-13.066215,0
152939575,0.69188654,0.10578951,-0.089958444,0.7085262,2.8471773,0.16911758,9.120948,-2.8885763,-4.953324,-13.0682955,0
152972909,0.69464284,0.10605283,-0.09140617,0.7055984,2.8238285,0.19135971,9.294379,-4.8630395,-4.533807,-13.035808,0
153006243,0.6973903,0.10664699,-0.092912726,0.70259553,2.809054,0.22046416,9.118704,-4.240714,-5.50507,-13.279977,0
153039577,0.69983006,0.10723133,-0.09334818,0.7000182,2.8144817,0.17014739,9.147308,-1.433917,-2.853574,-11.910172,0
153072911,0.70226777,0.10788316,-0.09433854,0.6973388,2.7870803,0.13496311,9.225487,-2.6415915,-4.388112,-11.970546,0
153106245,0.7047374,0.108318135,-0.095844604,0.6945691,2.9059517,0.069920324,9.129261,-4.4434366,-5.1357884,-12.003479,0
153139579,0.7073654,0.10856957,-0.09639394,0.6917769,2.9280674,-0.00061803544,8.978062,-2.6693876,-2.3322406,-12.732437,0
153172913,0.7100044,0.10939403,-0.09598597,0.68899447,2.978411,0.15362978,9.084892,1.000886,-1.3557605,-13.281518,0
153206247,0.7127681,0.109853104,-0.095451586,0.6861363,2.9852142,0.09004266,9.233118,0.33428183,-0.16486938,-13.692124,0
153239581,0.71563387,0.10990601,-0.095611356,0.68311614,2.9161465,0.17989548,9.319897,-2.3887813,-0.93264407,-13.932629,0
153272915,0.71862483,0.10925529,-0.09650641,0.67994726,2.9608185,0.16212627,9.438787,-5.9445806,-1.1032451,-14.086136,0
153306249,0.72176456,0.10820778,-0.09800502,0.6765663,2.8273973,0.23448373,9.4220085,-8.460921,-1.6965153,-14.594656,0
153339583,0.72484225,0.10765882,-0.10007568,0.67305154,2.998609,0.19990818,9.476329,-8.580694,-4.347313,-14.742135,0
153372917,0.72745895,0.10785765,-0.10205724,0.6698915,3.010937,0.19225009,9.1670685,-6.2203093,-5.8814516,-13.08225,0
153406251,0.73020333,0.108146526,-0.10259117,0.66677034,3.1639237,0.32443288,9.189864,-2.7005024,-2.4061027,-13.853034,0
153439585,0.73277307,0.10805458,-0.10249547,0.663975,3.0008862,0.17855333,9.404787,-2.0396657,0.11071435,-12.738499,0
153472919,0.7356526,0.108422704,-0.103524454,0.6605623,3.0380366,0.19581509,9.44558,-3.7827082,-3.8924656,-14.748286,0
153506253,0.7384432,0.10992441,-0.10544487,0.6568864,2.9873087,0.08123232,9.24932,-3.001873,-8.850117,-15.282989,0
153539587,0.74120414,0.11128014,-0.106303245,0.65340114,2.9718747,0.07452979,9.163834,-0.8926698,-5.76284,-15.080831,0
153572921,0.7441796,0.11194361,-0.106988244,0.64978385,3.0777018,0.1505101,9.216012,-2.394963,-3.7379124,-15.708259,0
153606255,0.74742633,0.11169732,-0.10771829,0.64596784,3.1633658,0.1994102,9.111143,-5.0011506,-1.7963095,-16.473145,0
153639589,0.75068843,0.10973043,-0.10819233,0.64243346,3.055489,0.121927775,9.144979,-8.755804,2.7989588,-15.2429285,0
153672923,0.75372547,0.108780965,-0.10870616,0.63894266,2.9889657,0.029768307,9.123824,-6.1131973,0.38250464,-14.991147,0
153706257,0.7566614,0.10820967,-0.10874396,0.63555413,3.1009889,0.12750944,9.057163,-4.009246,0.78670627,-14.82124,0
153739591,0.7595818,0.10793553,-0.10841452,0.63216436,3.0933218,0.055026095,9.0211735,-2.4286103,1.0893598,-15.039955,0
153772925,0.7625869,0.107455015,-0.107898325,0.6287072,3.119943,0.21906823,9.168216,-2.6161284,2.0351374,-15.388898,0
153806259,0.76566935,0.10639602,-0.10751516,0.62519675,3.101874,0.2857024,9.27144,-4.471975,2.948113,-15.436788,0
153839593,0.7685595,0.105107576,-0.10784996,0.6218015,2.9892,0.369627,9.519402,-6.5106564,1.5239193,-14.375954,0
153872927,0.77140015,0.103457816,-0.108999796,0.6183506,2.933729,0.38849428,9.557327,-9.213885,0.101429895,-13.988393,0
153906261,0.7738633,0.10240494,-0.11021434,0.6152249,3.1488252,0.39640796,9.448906,-7.5184965,-1.3662368,-12.527306,0
153939595,0.77611053,0.10122272,-0.11200986,0.6122584,3.0698717,0.3392387,9.665281,-8.961622,-2.6633382,-11.399574,0
153972929,0.77797264,0.10057492,-0.11466171,0.6095048,3.032291,0.116787255,9.518272,-9.125712,-6.1487,-9.929397,0
154006263,0.7794877,0.10094036,-0.11672581,0.60711193,3.0362382,-0.0053300504,9.417297,-4.920286,-6.712705,-8.837891,0
154039597,0.7807125,0.1023524,-0.11908417,0.6048397,3.0702422,0.10506455,9.362225,-2.5792177,-9.761483,-8.225544,0
154072931,0.78182757,0.104454845,-0.12151011,0.6025531,3.1631002,0.025337452,9.222421,-0.8325944,-11.4291115,-8.293129,0
154106265,0.7827874,0.1070204,-0.124329336,0.60027736,3.3137243,0.20315047,9.288465,-0.340983,-13.506007,-7.994513,0
154139599,0.7834805,0.108757906,-0.12683882,0.5985332,3.3163497,0.1253358,8.989421,-1.6081929,-10.880427,-5.7773542,0
154172933,0.7857313,0.1093298,-0.12856346,0.595101,3.2218125,-0.042214036,8.855115,-4.445847,-6.318897,-13.3099575,0
154206267,0.78711075,0.10984485,-0.13118838,0.59260494,3.3363526,0.1030095,8.882486,-5.7004533,-8.666981,-8.636034,0
154239601,0.788286,0.1092189,-0.13394184,0.5905387,3.5347137,0.3653289,8.947016,-8.779682,-6.618984,-6.4946594,0
154272935,0.7896491,0.10733591,-0.13663723,0.5884418,3.5180604,0.21211565,8.932642,-12.1619425,-3.8305242,-6.408251,0
154306269,0.7909149,0.10561024,-0.13743769,0.5868653,3.631141,0.06138637,8.894732,-7.6245704,1.1445594,-5.574444,0
154339603,0.7923938,0.103810064,-0.13702764,0.58528537,3.2974498,-0.12580676,9.00039,-5.464349,4.6893616,-6.419281,0
154372937,0.79418343,0.1023095,-0.13573247,0.58342296,3.320239,0.024333049,8.912339,-3.108023,6.5414014,-8.268318,0
154406271,0.79643875,0.10065696,-0.13408774,0.5810112,3.5201473,0.08172521,9.126444,-3.2446766,7.8262734,-10.75667,0
154439605,0.79904944,0.098698996,-0.13369666,0.5778441,3.3989325,0.008159118,9.277687,-7.057078,4.908828,-12.960211,0
154472939,0.8019971,0.096203275,-0.13376251,0.5741544,3.3364494,0.030611733,9.277833,-9.798543,4.6996927,-14.664217,0
154506273,0.80525804,0.0945715,-0.13310571,0.5699989,3.2963705,0.033473928,9.150825,-6.3095345,4.9773436,-17.202114,0
154539607,0.80823004,0.09540948,-0.13128376,0.5660617,3.2180383,-0.030922597,9.208249,3.0017357,3.302795,-17.543121,0
154572941,0.81141955,0.096605405,-0.12985982,0.561607,3.276781,0.15632506,9.345359,2.91566,1.4281881,-19.435299,0
154606275,0.8147988,0.097823225,-0.1286081,0.55677074,3.2781663,0.07547799,9.060439,2.4079573,0.8637775,-20.820185,0
154639609,0.8185076,0.10055648,-0.12742612,0.55108666,3.2051232,0.16835429,9.210526,6.032015,-2.3701375,-24.474417,0
154672943,0.82642347,0.10891588,-0.12341001,0.53845334,3.4251957,-0.45037302,9.022604,22.732632,-5.6129127,-55.44603,0
154706277,0.8343078,0.11262447,-0.12071773,0.5259976,3.2663398,1.1986262,8.956245,7.160092,-0.7073866,-52.41052,0
154739611,0.83805996,0.11229525,-0.12027149,0.5201734,3.1878412,0.6093221,9.126266,-4.143028,1.0050406,-23.378075,0
154772945,0.8406179,0.112188056,-0.120293975,0.51604736,3.1937888,0.5795859,9.391645,-3.1791563,-0.58147454,-16.260315,0
154806279,0.8423036,0.11111262,-0.121745326,0.513183,3.2736347,0.56676096,9.368317,-7.6541553,-2.8691285,-10.117065,0
154839613,0.8440931,0.10935856,-0.1232901,0.51024264,3.2409668,0.56340194,9.346838,-9.853932,-1.9276818,-10.197944,0
154872947,0.8453812,0.107146814,-0.12525792,0.5080953,3.3595784,0.60505027,9.165898,-11.400253,-2.2670689,-6.6647034,0
154906281,0.84756804,0.10566865,-0.12582305,0.5046103,3.1375916,0.2581994,9.034292,-7.724917,0.4248616,-12.952166,0
154939615,0.850805,0.105856225,-0.12334696,0.49971095,3.3039637,0.24689575,8.824044,1.4146532,6.3365507,-20.71866,0
154972949,0.85437596,0.1084688,-0.11930269,0.49400744,3.260362,0.43356565,9.123102,10.743108,6.6098824,-25.242256,0
155006283,0.85769594,0.109856695,-0.1167064,0.48853764,3.2916317,0.50749403,9.39662,4.878052,4.4226737,-23.087914,0
155039617,0.86085236,0.10842661,-0.1147277,0.48375058,3.137605,0.70959127,9.2351,-4.130208,7.528123,-19.435076,0
155072951,0.8648303,0.10557339,-0.11397228,0.47742364,3.1239388,0.6715391,9.378702,-11.291531,6.025468,-24.342012,0
155106285,0.86917436,0.1033851,-0.114102125,0.469924,2.90308,0.624909,9.260102,-11.360267,2.020507,-28.366941,0
155139619,0.8730162,0.10184608,-0.11298147,0.4633631,2.9571645,0.80018246,9.1074095,-6.854476,4.842677,-25.449152,0
155172953,0.8761229,0.1007203,-0.11154383,0.45806354,2.992832,0.84599435,9.3543215,-4.3662453,5.2921605,-20.766272,0
155206287,0.87813914,0.100190274,-0.110183194,0.4546356,2.953219,0.90185314,9.313501,-1.6025271,4.351735,-13.615962,0
155239621,0.8799368,0.100289054,-0.10830209,0.4515796,2.8469126,0.7077789,9.225869,1.3225183,4.985483,-12.570924,0
155272955,0.8817002,0.10004335,-0.10722117,0.44844157,2.8171854,0.9133934,9.507772,-0.98084044,3.057795,-12.36281,0
155306289,0.8829832,0.098886944,-0.10739921,0.44612527,2.9205983,0.80750996,9.403943,-5.216815,0.7501618,-8.364652,0
155339623,0.88442314,0.09764247,-0.10655181,0.4437437,2.8320286,0.7944245,9.404112,-3.9890435,4.0341763,-9.119916,0
155372957,0.8857771,0.09569877,-0.10625992,0.4415309,2.82157,0.85041887,9.516639,-6.872642,3.4365418,-8.033168,0
155406291,0.88676476,0.094210334,-0.1065462,0.4397961,2.729694,0.60281503,9.520423,-6.0694933,1.0076144,-5.998264,0
155439625,0.8876754,0.093996204,-0.10671782,0.43795964,2.7210736,0.53422517,9.466986,-2.0201328,-0.6323012,-6.6937685,0
155472959,0.8885696,0.0941557,-0.106859304,0.43607333,2.7849135,0.644667,9.394179,-0.84421444,-1.1259928,-6.9664416,0
155506293,0.8894968,0.09381206,-0.10734827,0.43413275,2.8313153,0.5855544,9.36164,-2.9310937,-1.4388263,-6.885351,0
155539627,0.8902111,0.09360678,-0.107950956,0.43256077,2.8989553,0.6340279,9.259632,-2.4705446,-1.9511827,-5.4546814,0
155572961,0.8910651,0.093194574,-0.108212,0.43082216,2.8144789,0.5449944,9.26339,-2.7007458,-0.5978072,-6.2063136,0
155606295,0.892168,0.09256509,-0.10818892,0.42867625,2.8271117,0.7141179,9.357392,-3.174358,0.5569007,-7.8331265,0
155639629,0.8931333,0.0911689,-0.10871879,0.42682713,2.764014,0.6667208,9.454344,-6.18708,0.03458678,-6.2596726,0
155672963,0.89406806,0.09040365,-0.10920605,0.42490435,2.704801,0.7042561,9.420713,-4.205001,-0.7960434,-6.690907,0
155706297,0.89485866,0.090387724,-0.10988285,0.42306527,2.7952716,0.7166115,9.598554,-2.103163,-2.502811,-6.445358,0
155739631,0.895616,0.09080711,-0.11036155,0.42124397,2.8344452,0.67748165,9.412869,-0.45922318,-2.534538,-6.569117,0
155772965,0.896524,0.091213554,-0.11035428,0.41922185,2.874004,0.68161815,9.476784,0.08133638,-1.0245919,-7.553229,0
155806299,0.89715797,0.09156119,-0.111292504,0.41753834,2.8147604,0.6760191,9.463926,-1.2482293,-3.8515186,-5.797912,0
155839633,0.8978273,0.0917472,-0.11170837,0.4159444,2.8014863,0.5400805,9.1639185,-0.97279644,-1.9669093,-5.674843,0
155872967,0.89847493,0.09226579,-0.111324444,0.41453215,2.794416,0.6243831,9.142705,1.2765918,0.075439036,-5.4639783,0
155906301,0.8990264,0.0924651,-0.111318454,0.41329178,2.8304572,0.6889688,9.180137,-0.15131347,-0.61888623,-4.555489,0
155939635,0.8996951,0.09265943,-0.11140213,0.41176784,2.8009205,0.63559604,9.046672,-0.4388994,-0.9335001,-5.5688496,0
155972969,0.90033275,0.09273452,-0.111118846,0.41043147,2.8622272,0.7366158,9.107608,-0.20597099,0.4191872,-5.017241,0
156006303,0.9009371,0.09245215,-0.11099875,0.4091996,2.8630593,0.7661503,9.173446,-1.4923052,0.44065702,-4.4592805,0
156039637,0.90138125,0.09218637,-0.11068417,0.4083656,2.8860343,0.77706337,9.23455,-0.9655412,1.0865004,-3.071584,0
156072971,0.9018251,0.09174765,-0.10989074,0.4076985,2.848737,0.79360396,9.368272,-0.7661016,2.8671405,-2.6414576,0
156106305,0.9021984,0.09161169,-0.109597124,0.4069815,2.7097356,0.60814303,9.388131,-0.524657,0.850934,-2.6543024,0
156139639,0.902521,0.092367426,-0.10879451,0.40631014,2.8560374,0.7734636,9.355302,2.9885516,1.1761388,-2.9397435,0
156172973,0.9027266,0.09250903,-0.10869866,0.40584686,2.8408673,0.8988575,9.689876,0.210117,-0.1359138,-1.6777921,0
156206307,0.902759,0.09273823,-0.10886908,0.40567636,2.8118765,0.7687649,9.428268,0.27416795,-1.0566071,-0.4760953,0
156239641,0.9027134,0.09362551,-0.10821814,0.40574813,2.8343961,0.76486737,9.380592,3.5782833,0.62316024,-0.12426001,0
156272975,0.9026595,0.09435852,-0.10775674,0.405821,2.8404667,0.81641495,9.486679,2.8390818,0.24768446,0.008199267,0
156306309,0.90249664,0.09524953,-0.107350975,0.4060829,2.8025463,0.7787448,9.316231,3.3573358,-0.12417679,0.7034497,0
156339643,0.9022665,0.09660636,-0.106959864,0.40637663,2.7134635,0.76740664,9.359489,4.815781,-0.8345836,0.72257614,0
156372977,0.90206206,0.097270764,-0.10680418,0.40671295,2.8113074,0.751041,9.324676,2.3494627,-0.57472986,1.1563528,0
156406311,0.90199745,0.09717111,-0.10653606,0.40695012,2.7797399,0.7198374,9.300255,0.05617826,0.8606412,0.8921448,0
156439645,0.90200394,0.09678814,-0.10661338,0.40700695,2.7377765,0.7005431,9.36105,-1.385314,0.15390351,0.48376304,0
156472979,0.90188545,0.09717814,-0.10673893,0.40714356,2.830477,0.6721982,9.134907,1.0316187,-1.0920998,0.6976034,0
156506313,0.9018362,0.09738779,-0.106379695,0.4072967,2.811799,0.6934989,9.263418,1.130727,0.69383204,0.5274391,0
156539647,0.90180176,0.09756258,-0.106285855,0.40735558,2.7209713,0.7168558,9.377561,0.6315324,-0.10009443,0.39011347,0
156572981,0.90179545,0.09777221,-0.106286354,0.4073193,2.7756763,0.7094534,9.372043,0.5235332,-0.47938013,-0.11498182,0
156606315,0.9017858,0.09794813,-0.106255524,0.40730628,2.8016202,0.7204562,9.38164,0.4329475,-0.34399137,-0.22890072,0
156639649,0.901759,0.098219246,-0.10614403,0.40732944,2.7835736,0.7639422,9.369188,0.85522413,-0.22430323,-0.18948275,0
156672983,0.9017772,0.098000474,-0.10622004,0.40732187,2.8327758,0.75565094,9.495727,-1.06869,-0.15704426,-0.6399077,0
156706317,0.9017303,0.09793376,-0.106485985,0.40737244,2.7724361,0.8063069,9.506964,-0.74267226,-0.93592656,-0.02607373,0
156739651,0.901624,0.09815527,-0.10680293,0.4074714,2.78326,0.78270787,9.4245205,0.13048711,-1.499822,0.1712049,0
156772985,0.90130174,0.098812066,-0.1066926,0.4080542,2.8215523,0.70918435,9.365898,1.9522609,-0.84068567,-0.033623077,0
156806319,0.90113384,0.09928796,-0.10703933,0.4082187,2.852944,0.827695,9.326418,0.937364,-1.9459952,0.42466173,0
156839653,0.9007866,0.09964804,-0.107080065,0.408886,2.744226,0.6935519,9.348372,0.87019473,-0.87384135,0.43957472,0
156872987,0.9007782,0.10006604,-0.10731055,0.40874195,2.794563,0.74904114,9.215086,1.1802299,-1.3958025,1.1153018,0
156906321,0.900773,0.099876866,-0.107578106,0.4087293,2.8538501,0.74081844,9.163893,-1.0103825,-0.72556293,0.37835398,0
156939655,0.9007441,0.09988988,-0.10761565,0.40877995,2.8297813,0.6950253,9.160559,-0.00023691748,-0.27333233,0.5726776,0
156972989,0.9009602,0.10021569,-0.107576944,0.4082337,2.8102486,0.70571727,9.157711,1.1987607,-0.4306007,0.14626451,0
157006323,0.9013074,0.1006053,-0.10698913,0.40752533,2.8730805,0.7387894,9.188647,2.1803036,1.22187,-0.21384685,0
157039657,0.90134454,0.1002699,-0.106976494,0.4075293,2.775692,0.7308084,9.42418,-1.0845442,0.36609194,0.26800808,0
157072991,0.90139616,0.10003728,-0.1074153,0.4073567,2.753386,0.6722871,9.4186945,-1.4547567,-1.2306648,-0.14340553,0
157106325,0.90142584,0.09973624,-0.10738162,0.40737402,2.8563926,0.71790314,9.33813,-1.1227903,0.30991688,-0.5634986,0
157139659,0.9015835,0.099652015,-0.10735792,0.4070515,2.7978907,0.71407074,9.300268,-0.38079682,0.0019049445,-0.7306087,0
157172993,0.9017371,0.09949255,-0.10743376,0.40673015,2.8637128,0.79127735,9.381218,-0.7689637,-0.21045958,-0.75755966,0
157206327,0.9017081,0.09945772,-0.107629575,0.40675125,2.7435787,0.753385,9.307528,-0.58101773,-0.790568,-0.4462565,0
157239661,0.90182287,0.100050114,-0.10733232,0.40642998,2.8421774,0.716576,9.178677,2.1662936,-0.09492067,-0.80585885,0
157272995,0.9019934,0.099551335,-0.107055984,0.4062469,2.8897183,0.6837485,9.183856,-1.4504346,1.342685,-1.1358272,0
157306329,0.9018037,0.09926284,-0.10684341,0.40679428,2.7449725,0.6014194,9.216286,-1.0662951,0.7481245,-1.0645598,0
157339663,0.90211433,0.0992197,-0.10628101,0.40626308,2.7943563,0.6713104,9.19889,0.352498,1.5856985,-1.9653522,0
157372997,0.9024763,0.0989428,-0.1051325,0.40582538,2.8006072,0.5890349,9.081155,0.18163574,3.668531,-3.2001479,0
157406331,0.90295,0.09866909,-0.10402458,0.405123,2.7549813,0.6543469,9.30114,0.25649524,3.58972,-2.9742181,0
157439665,0.9030014,0.09827926,-0.10332605,0.40528193,2.656317,0.6266476,9.342532,-0.935107,2.3282683,-2.9728858,0
157472999,0.90285796,0.09806972,-0.1020305,0.4059799,2.6813774,0.57002944,9.28916,0.111495346,3.7837493,-4.312854,0
157506333,0.90379244,0.0975403,-0.101154,0.404244,2.6672742,0.64842576,9.297828,-0.95503396,3.2061834,-4.686127,0
157539667,0.9047697,0.09687786,-0.10023951,0.40244105,2.6510797,0.6643285,9.309584,-1.4188738,3.4732666,-5.250811,0
157573001,0.90618855,0.0956944,-0.09938787,0.39973372,2.6416948,0.7118483,9.284541,-2.9317918,4.1321282,-5.1359453,0
157606335,0.90718275,0.094823316,-0.09805785,0.3980111,2.6346772,0.6785138,9.277546,-1.5758992,5.049967,-5.535696,0
157639669,0.9077206,0.09425543,-0.09678003,0.39723164,2.6369147,0.7588362,9.471253,-0.87351537,4.344516,-5.4091625,0
157673003,0.9081341,0.09379111,-0.095776685,0.3966394,2.539181,0.7943973,9.449906,-0.800602,3.371891,-4.522673,0
157706337,0.90866685,0.093320966,-0.09445241,0.39584664,2.537863,0.75874466,9.641265,-0.36598003,4.406427,-4.805373,0
157739671,0.90920997,0.093118474,-0.09360273,0.3948476,2.494583,0.7790745,9.529678,-0.06675953,2.5764177,-4.4419928,0
157773005,0.909405,0.0929566,-0.0927685,0.3946335,2.479434,0.7354845,9.5331545,0.032915533,2.4339726,-3.6048672,0
157806339,0.90993565,0.093107425,-0.09204362,0.39354277,2.4496753,0.6944018,9.406567,0.8652261,1.6764957,-4.7143197,0
157839673,0.91021615,0.09332366,-0.091351695,0.3930041,2.4379127,0.7487534,9.341185,1.0176983,1.4509053,-4.1642866,0
157873007,0.91096246,0.09317985,-0.090674,0.39146304,2.4339418,0.7391841,9.412249,-0.010353937,2.004985,-4.5097256,0
157906341,0.91163045,0.09311643,-0.09002228,0.39007133,2.506738,0.8093266,9.313966,0.091043584,1.7446578,-5.031277,0
157939675,0.91212356,0.09304115,-0.089173295,0.3891301,2.4327745,0.8723098,9.395921,0.22536944,2.3201497,-5.133293,0
157973009,0.91275936,0.09274147,-0.08850157,0.3878619,2.3987973,0.8167501,9.445284,-0.59634715,2.1410463,-4.677591,0
158006343,0.91324645,0.09275828,-0.087710395,0.38689,2.3674128,0.83068895,9.45978,0.5289249,2.0538354,-4.674493,0
158039677,0.91374236,0.09253471,-0.08697408,0.38593757,2.4043937,0.81252867,9.348536,-0.20583008,2.2568345,-4.008606,0
158073011,0.9143634,0.09236809,-0.086055644,0.38471076,2.3135617,0.72265065,9.293113,0.21330582,2.7692683,-4.3892174,0
158106345,0.91484785,0.0931545,-0.08435718,0.3837442,2.3012478,0.783442,9.294959,4.218008,3.920331,-4.817752,0
158139679,0.9154821,0.09291678,-0.08301105,0.3825812,2.3257177,0.87638617,9.574688,0.48538333,4.1752214,-4.877679,0
158173013,0.9162426,0.091800585,-0.082519405,0.38113374,2.201471,0.79339755,9.600763,-3.4401908,2.635577,-4.884927,0
158206347,0.9168956,0.091253705,-0.08170825,0.37986746,2.1983724,0.86147296,9.560464,-1.2583139,2.8500576,-5.1945586,0
158239681,0.91756135,0.09058315,-0.081007846,0.37856793,2.2065368,0.8743342,9.607996,-1.7874982,2.6648645,-5.135438,0
158273015,0.9181589,0.090464234,-0.080419965,0.37727076,2.1427379,0.8114578,9.5566225,-0.12228787,1.602091,-4.836454,0
158306349,0.91871315,0.09049966,-0.07978469,0.37604576,2.2488394,0.88096577,9.457006,0.4262883,1.5388658,-4.8459306,0
158339683,0.919227,0.09036723,-0.07876159,0.37503618,2.2634857,0.9254463,9.415592,0.4536107,3.0266378,-4.3017187,0
158373017,0.9197125,0.09034493,-0.077753045,0.37406048,2.1044252,0.8842312,9.525875,0.80501693,2.8436348,-4.1622057,0
158406351,0.920167,0.09077151,-0.07687898,0.37301865,2.1158981,0.8469749,9.427923,2.0587912,1.8196708,-4.314006,0
158439685,0.92073,0.09077867,-0.075675085,0.37187198,2.1636434,0.9086076,9.495917,1.0880632,3.391216,-4.8274775,0
158473019,0.9212534,0.09071115,-0.07457394,0.3708138,2.0987976,0.8723751,9.438935,0.7551298,3.1768305,-4.4627,0
158506353,0.92179763,0.09088945,-0.07337017,0.3696556,2.0399637,0.81856126,9.383839,1.641951,3.167066,-4.8490114,0
158539687,0.9223616,0.09098585,-0.07222109,0.3684492,2.0407221,0.88433224,9.382628,1.2909286,3.0820827,-5.036797,0
158573021,0.92299473,0.090676926,-0.07080704,0.3672122,2.0416844,0.9091602,9.4441595,0.31291375,4.4417024,-5.214359,0
158606355,0.92368096,0.08984524,-0.06973127,0.36589518,1.9286591,0.9150007,9.469863,-1.804723,4.0173316,-5.287149,0
158639689,0.9242434,0.089917615,-0.06861583,0.3646653,1.9277203,0.871491,9.368905,1.1723353,2.9983613,-5.120192,0
158673023,0.92476434,0.0908262,-0.06707219,0.36340505,1.9823707,0.9124021,9.353838,4.377454,3.2930431,-5.4684243,0
158706357,0.9253329,0.09096898,-0.06535247,0.3622332,2.0828314,1.0847013,9.365337,2.1647904,4.8437467,-5.1703377,0
158739691,0.92594635,0.090220414,-0.06349021,0.36118257,1.9697868,1.0507562,9.554764,-0.477895,6.4578414,-4.676013,0
158773025,0.92647195,0.08996012,-0.061911616,0.3601723,1.7460289,1.0287572,9.664067,0.76167417,4.9413176,-4.4580216,0
158806359,0.92696565,0.09022881,-0.060322333,0.35910302,1.7286364,0.9818228,9.665756,2.4601238,4.2940135,-4.7080145,0
158839693,0.9274638,0.09075629,-0.058520332,0.35797983,1.7742178,1.02928,9.610184,3.535897,4.632787,-5.0189857,0
158873027,0.92803043,0.09052114,-0.056864213,0.35683608,1.7204614,1.0760777,9.707986,0.8996499,5.110381,-4.9855022,0
158906361,0.92860043,0.08996446,-0.05570222,0.35567543,1.5957137,1.0008425,9.638889,-0.7315439,3.9254012,-4.795526,0
158939695,0.9290051,0.09070577,-0.05435657,0.35463715,1.6954104,0.99942386,9.372313,3.710184,2.9244182,-4.542748,0
158973029,0.9295369,0.09081645,-0.052620262,0.35347527,1.7336425,1.1205485,9.599339,2.112476,4.925982,-5.0915456,0
159006363,0.9300519,0.0902011,-0.051426485,0.35245237,1.715917,1.181608,9.613659,-0.83698505,4.11272,-4.346714,0
159039697,0.9304802,0.089716606,-0.050354443,0.35159934,1.6130091,1.121448,9.529779,-0.50822026,3.602821,-3.6825123,0
159073031,0.93084574,0.09002012,-0.048832618,0.3507679,1.5016562,1.1850567,9.550208,2.580298,4.083463,-3.8145263,0
159106365,0.9311288,0.090714656,-0.047274966,0.35005015,1.5575334,1.2570729,9.5499,3.919453,3.7453825,-3.430061,0
159139699,0.9314872,0.09044399,-0.045905735,0.34934816,1.5439031,1.1793984,9.427192,0.5819176,4.319465,-3.2598066,0
159173033,0.93176293,0.09042713,-0.044102535,0.34884915,1.5350579,1.2163976,9.445857,1.9733989,5.451657,-2.7046258,0
159206367,0.9320373,0.08966164,-0.04266339,0.34849283,1.4920722,1.2070496,9.7253895,-0.8369658,5.228838,-2.0050142,0
159239701,0.9322856,0.08941194,-0.041143954,0.3480755,1.3470002,1.1170138,9.572344,0.9129425,4.8443785,-2.2690554,0
159273035,0.93246394,0.09028413,-0.03929126,0.34758648,1.3604541,1.1372749,9.52222,4.920271,4.534319,-2.6867101,0
159306369,0.93270934,0.09039115,-0.03746967,0.34710068,1.4141965,1.2797679,9.670574,2.4119847,5.357209,-2.6444101,0
159339703,0.9330014,0.08950857,-0.035959758,0.34670407,1.2882304,1.2150055,9.634234,-1.1348354,5.571428,-2.1906683,0
159373037,0.93325365,0.089186594,-0.034444932,0.34626135,1.2608235,1.143831,9.512769,0.67740816,4.8977165,-2.3680809,0
159406371,0.9334871,0.08911168,-0.03275018,0.34581584,1.2698748,1.2455702,9.617827,1.6917998,5.175404,-2.444772,0
159439705,0.93374205,0.08833501,-0.031429514,0.34544906,1.2882006,1.1998683,9.73705,-1.001329,4.834652,-2.0277903,0
159473039,0.9339551,0.08784992,-0.030271992,0.34510013,1.1490076,1.1547205,9.570368,-0.2421297,3.964101,-1.9086586,0
159506373,0.93423843,0.0872842,-0.028787296,0.34460357,1.1018616,1.1604936,9.638883,-0.14741395,5.0703535,-2.5624812,0
159539707,0.9344904,0.08723637,-0.027429603,0.3440426,1.1511986,1.1802343,9.578495,1.3708144,4.02424,-2.7479427,0
159573041,0.93476105,0.08651653,-0.026024401,0.34359813,1.182772,1.2576976,9.650782,-0.724718,5.007307,-2.351618,0
159606375,0.93501085,0.085720986,-0.024834843,0.34320545,1.0085373,1.1494471,9.653043,-1.2101685,4.4162683,-2.0942936,0
159639709,0.9352252,0.08536975,-0.02353005,0.34280065,1.0480516,1.221017,9.567599,0.36525962,4.2531214,-2.1705747,0
159673043,0.93550164,0.084555805,-0.02232804,0.34232846,1.0365349,1.2035992,9.648555,-1.2655303,4.4520106,-2.3960242,0
159706377,0.9357958,0.083378516,-0.021129327,0.34188864,0.9798254,1.207732,9.612841,-2.4387786,4.878713,-2.2871835,0
159739711,0.93603694,0.08251699,-0.019491581,0.3415346,0.9127771,1.1624409,9.557076,-0.8839589,5.939624,-2.1010303,0
159773045,0.9361951,0.0824562,-0.017808624,0.34120795,0.8878493,1.1885688,9.603593,1.7732612,5.1446495,-1.9870793,0
159806379,0.9363287,0.08229271,-0.016267058,0.3409575,0.912799,1.2542106,9.71576,1.2900512,4.828133,-1.6703135,0
159839713,0.9364981,0.08165711,-0.0148277,0.34071043,0.82719195,1.16426,9.512775,-0.3579824,5.0539927,-1.6502396,0
159873047,0.9366948,0.08123242,-0.01301046,0.3403455,0.7650974,1.1427245,9.679576,0.7523895,5.9894724,-2.184598,0
159906381,0.93690413,0.08058276,-0.011973115,0.3399613,0.7781795,1.2332593,9.670597,-0.8867054,3.734291,-2.0375865,0
159939715,0.937142,0.07955409,-0.010445883,0.3395982,0.75110483,1.129327,9.534956,-1.5403101,5.7607446,-2.1267004,0
159973049,0.93741906,0.07845773,-0.008929886,0.33913156,0.714437,1.2194796,9.755871,-1.7834901,5.7754903,-2.504558,0
160006383,0.9376939,0.07768521,-0.007451813,0.33858475,0.6903183,1.178158,9.681755,-0.78426754,5.252594,-2.763816,0
160039717,0.9379643,0.0770874,-0.0056611444,0.33800682,0.6489663,1.1155306,9.624174,0.14541303,6.047173,-2.9509053,0
160073051,0.9381451,0.07738383,-0.0038234857,0.3374625,0.595453,1.1798034,9.578595,3.1104624,5.1646914,-2.7739851,0
160106385,0.93828076,0.077620074,-0.0018661742,0.3370474,0.65152013,1.276658,9.657891,3.0704231,5.651967,-2.339203,0
160139719,0.93841094,0.07701343,-9.045153e-05,0.33682957,0.5652246,1.2512512,9.6276655,0.14534254,6.0947084,-1.6454695,0
160173053,0.9385446,0.07586351,0.0015583421,0.33671448,0.48606676,1.2547647,9.715022,-1.7535044,6.3404117,-1.2866421,0
160206387,0.9387277,0.074443765,0.0028810631,0.33651194,0.4379415,1.2564946,9.854241,-3.012375,5.5766525,-1.5441455,0
160239721,0.9388772,0.07411165,0.004442531,0.33615074,0.40087938,1.2397243,9.618559,0.78506476,5.0470777,-2.0693083,0
160273055,0.93894386,0.07421326,0.0063005304,0.3359128,0.47956127,1.3113478,9.57307,2.5478084,5.534244,-1.6448292,0
160306389,0.9389601,0.07387793,0.00831106,0.33589724,0.37000906,1.2977922,9.600214,1.3221316,6.588305,-0.9186642,0
160339723,0.93895453,0.073628016,0.010642342,0.3359019,0.36247227,1.2889336,9.628442,1.9743023,7.529522,-0.90752274,0
160373057,0.93894225,0.07276485,0.01226284,0.33606935,0.25275508,1.3151056,9.770189,-0.8288145,5.983734,-0.21951373,0
160406391,0.9389474,0.07183525,0.014039401,0.33618525,0.27632722,1.2534269,9.654535,-0.8640259,6.549239,-0.44758865,0
160439725,0.93893623,0.07070049,0.016146122,0.33636233,0.25600153,1.188862,9.705544,-1.141226,7.867091,-0.32781082,0
160473059,0.93891656,0.0698039,0.017835896,0.3365192,0.14919373,1.1800498,9.723888,-0.84845316,6.2403226,-0.27268574,0
160506393,0.938871,0.069327235,0.019610794,0.33664602,0.19863907,1.1927329,9.718967,0.61593765,6.0221467,-0.33943886,0
160539727,0.9388484,0.06880858,0.021442076,0.33670378,0.11466193,1.2267439,9.80372,0.5473597,6.2337594,-0.6087053,0
160573061,0.93882394,0.06840074,0.02343493,0.33672237,0.106036745,1.2318673,9.706833,1.0976235,6.61655,-0.76655024,0
160606395,0.9387758,0.06792926,0.025095027,0.3368323,0.05701638,1.2531908,9.714282,0.5072182,5.6387444,-0.37432343,0
160639729,0.93875825,0.06701191,0.026925584,0.33692396,-0.026061872,1.245035,9.807582,-0.73807526,6.6971717,-0.54978985,0
160673063,0.93873143,0.065776445,0.028499395,0.33711213,0.0032561384,1.1984353,9.805462,-2.0666707,6.259404,-0.2002338,0
160706397,0.93872595,0.06473988,0.029879993,0.33720863,-0.07150376,1.1933436,9.830422,-1.641794,5.381848,-0.46289212,0
160739731,0.93869567,0.06408704,0.030982297,0.33731812,-0.078294426,1.1924431,9.892505,-0.7197234,4.0435452,-0.29544896,0
160773065,0.9386649,0.063555844,0.032220438,0.3373882,-0.20169629,1.2187294,9.829967,-0.16322339,4.330984,-0.4431639,0
160806399,0.938641,0.06315562,0.03337642,0.33741707,-0.20027852,1.1767145,9.886602,0.16850278,3.9023805,-0.55369544,0
160839733,0.93860775,0.06314062,0.03440665,0.3374094,-0.1772472,1.186426,9.669547,1.2738382,3.041153,-0.5936,0
160873067,0.93859935,0.0625284,0.035703186,0.3374121,-0.11266763,1.2151959,9.681144,-0.34949178,4.5914207,-0.71985793,0
160906401,0.9385467,0.06206081,0.036952276,0.33751056,-0.25870863,1.1548897,9.686938,0.06176824,4.296426,-0.335757,0
160939735,0.9385112,0.06241294,0.038334496,0.33738998,-0.3122113,1.1679939,9.534244,2.8870997,3.7236297,-0.99019367,0
160973069,0.93849933,0.06199924,0.039640147,0.33734807,-0.2493168,1.2130326,9.621726,0.31349632,4.376779,-0.8509565,0
161006403,0.9385562,0.060501724,0.040722445,0.33733314,-0.30260068,1.2088318,9.60834,-3.4588177,4.909083,-0.9459287,0
161039737,0.93859684,0.058479566,0.041929234,0.33742902,-0.26470748,1.1708406,9.605231,-5.0178785,5.9450173,-0.67021453,0
161073071,0.9385583,0.057192914,0.043476187,0.33756077,-0.3315935,1.1052575,9.6828985,-2.2369187,6.2086473,-0.42957008,0
161106405,0.9385399,0.05677354,0.04492111,0.3374932,-0.38233536,1.1668732,9.945686,0.47166112,4.8301115,-0.9516273,0
161139739,0.93854463,0.05607844,0.045912758,0.33746287,-0.39308596,1.1715903,9.933477,-0.9524148,3.690781,-0.8155597,0
161173073,0.9385188,0.05627724,0.047391456,0.33729726,-0.44474682,1.1719744,9.791753,2.5257876,4.203241,-1.1727226,0
161206407,0.93849033,0.05632506,0.048450887,0.33721823,-0.43149078,1.2515789,9.937201,1.5401145,3.0416849,-0.8361908,0
161239741,0.93844134,0.055646148,0.049163666,0.33736396,-0.46012816,1.2074115,9.700932,-1.2394177,2.8127515,-0.14222093,0
161273075,0.93842703,0.05531088,0.050024834,0.3373322,-0.46911585,1.1801312,9.627082,0.0655333,2.852714,-0.7284893,0
161306409,0.93837273,0.05497923,0.05075804,0.33742777,-0.4448126,1.2251284,9.637573,-0.0849125,2.466692,-0.2484944,0
161339743,0.9383023,0.055096544,0.05190563,0.33742982,-0.51694304,1.2056267,9.474539,1.8636285,3.2674544,-0.53280187,0
161373077,0.9382042,0.05498184,0.053302236,0.33750364,-0.43880007,1.2500592,9.482791,1.3966129,4.358127,-0.35689384,0
161406411,0.9380448,0.054548476,0.054723706,0.33778968,-0.53345627,1.233227,9.394624,0.37067673,4.8598413,0.33652216,0
161439745,0.9379242,0.053517092,0.056301016,0.33803052,-0.58969986,1.1800328,9.50728,-1.3748711,6.0409403,0.0027373587,0
161473079,0.93779206,0.05248072,0.05785422,0.3382972,-0.5682896,1.1834383,9.551252,-1.4203081,5.976288,0.10342733,0
161506413,0.9376762,0.05116474,0.05962448,0.33851215,-0.70101225,1.1607295,9.742989,-2.0597682,6.988785,-0.18094105,0
161539747,0.93761873,0.049991135,0.06097221,0.33860642,-0.70196885,1.1905731,9.824498,-2.0761855,5.427887,-0.5352096,0
161573081,0.9374553,0.04919377,0.06256879,0.33888504,-0.7018444,1.2065763,9.697485,-0.59277415,5.8462386,0.21681479,0
161606415,0.93732196,0.04821588,0.06409608,0.3391087,-0.7512785,1.1888264,9.877075,-1.2474225,5.8178163,-0.023717372,0
161639749,0.93722874,0.047216844,0.06521344,0.33929378,-0.8131222,1.2393643,9.83074,-1.7902832,4.5068216,-0.13261618,0
161673083,0.9370696,0.04633925,0.06636209,0.3396316,-0.8272645,1.2032775,9.743537,-1.3859419,4.505752,0.45876518,0
161706417,0.9368873,0.045538947,0.067725845,0.3399733,-0.8102344,1.1361915,9.706151,-0.8824411,5.1147013,0.4823417,0
161739751,0.9367084,0.044702906,0.06881679,0.34035778,-0.8102057,1.1777962,9.786755,-1.3254447,4.284247,0.64812636,0
161773085,0.9364732,0.043855865,0.06972375,0.34093043,-0.8800944,1.1279336,9.661108,-1.6113528,3.7478144,1.3447855,0
161806419,0.9362074,0.043552138,0.07081149,0.3414743,-0.98270893,1.0838428,9.641638,0.36208364,3.695731,1.389819,0
161839753,0.93600154,0.04355377,0.072017215,0.3417862,-0.95352554,1.080421,9.498542,1.5321231,3.666212,0.6280523,0
161873087,0.9358125,0.042550188,0.07336815,0.3421427,-0.96402884,1.1164747,9.548346,-1.5439852,5.31651,0.47958195,0
161906421,0.9356245,0.041463643,0.074741475,0.34249297,-1.0162172,1.0284629,9.664923,-1.7814538,5.484991,0.43295407,0
161939755,0.93542224,0.040733594,0.07607383,0.34283948,-1.0525547,1.1160853,9.644663,-0.67779547,4.9359946,0.5319984,0
161973089,0.93522274,0.039694633,0.07740962,0.3432066,-1.088662,1.0712463,9.776888,-1.6717479,5.313174,0.5131603,0
162006423,0.9350623,0.038998608,0.0784567,0.34348574,-1.1256388,1.0669606,9.784898,-0.88997746,3.9578574,0.3135667,0
162039757,0.9349394,0.03815341,0.07974451,0.34361818,-1.1556344,1.1235664,9.755987,-1.0492566,4.877572,-0.2769118,0
162073091,0.9348048,0.03720354,0.08085494,0.34382924,-1.1190256,1.0782943,9.720115,-1.6146189,4.4449353,-0.014400746,0
162106425,0.934645,0.0365562,0.08198654,0.34406528,-1.1446342,1.1157956,9.782385,-0.6195969,4.1657686,0.17414396,0
162139759,0.93449175,0.03589288,0.08286294,0.3443409,-1.1524881,1.1026955,9.755812,-0.98409784,3.3683112,0.31883657,0
162173093,0.9342734,0.03582838,0.083676375,0.3447433,-1.219534,1.079425,9.60639,0.83741045,2.4915042,0.981341,0
162206427,0.9340687,0.035753895,0.08458599,0.34508348,-1.2289505,1.1322153,9.709842,0.9352892,2.8003097,0.75226736,0
162239761,0.9338808,0.034816906,0.085390046,0.34548962,-1.2538352,1.0900441,9.586992,-1.9810594,3.4881651,0.7084378,0
162273095,0.93369997,0.03378648,0.08628944,0.34585726,-1.2916063,1.044611,9.551317,-2.1571789,3.8986669,0.53905463,0
162306429,0.9335001,0.032930076,0.08718081,0.34625527,-1.2574044,1.0747318,9.538588,-1.6140549,3.6750355,0.71037793,0
162339763,0.9332289,0.03183447,0.08814345,0.34684473,-1.3150724,1.1047459,9.509491,-2.3460665,4.2321444,1.3298086,0
162373097,0.9329728,0.03066972,0.08905283,0.347406,-1.3555256,1.1002795,9.645374,-2.625213,4.1365323,1.2096914,0
162406431,0.9326704,0.030085267,0.09014938,0.3479859,-1.3912438,1.0613618,9.509917,-0.54266924,4.0605774,1.4898046,0
162439765,0.9323783,0.029772934,0.09133632,0.34848547,-1.3890857,1.0884713,9.538434,0.46206278,4.0124383,1.2931182,0
162473099,0.93205523,0.028841775,0.09251761,0.34911573,-1.4016079,1.1255848,9.55576,-1.5682917,4.7597666,1.5663804,0
162506433,0.9316826,0.0277282,0.093936935,0.34982106,-1.464239,1.0869956,9.557862,-1.8866134,5.764804,1.7862916,0
162539767,0.9312806,0.027430937,0.09535855,0.35052913,-1.4702351,1.0819951,9.535278,0.73327583,4.7996264,2.090538,0
162573101,0.9308304,0.026998641,0.096603185,0.35141686,-1.5275104,1.1218982,9.58609,0.032512132,4.428268,2.6998963,0
162606435,0.9304327,0.02590828,0.098037034,0.35215423,-1.5928371,1.0460831,9.598725,-1.8004968,5.797108,1.9233581,0
162639769,0.93006027,0.025046716,0.09944782,0.3528043,-1.5877466,1.0924901,9.552009,-1.0693179,5.4296737,1.6955456,0
162673103,0.92961013,0.023737205,0.10069169,0.35372728,-1.6243819,1.1418098,9.648988,-2.7922978,5.48996,2.5306673,0
162706437,0.9291034,0.022626318,0.102105245,0.3547248,-1.6194881,1.0133246,9.600672,-1.972371,5.816407,2.8921266,0
162739771,0.92851025,0.021674283,0.10349402,0.35593307,-1.6786711,1.0567752,9.692566,-1.5625355,5.590625,3.7319868,0
162773105,0.9280048,0.021081682,0.104556546,0.35697427,-1.750913,1.0366695,9.718749,-0.7611264,4.0651813,3.2428663,0
162806439,0.9274882,0.020695236,0.10581061,0.35796875,-1.7527891,1.0529869,9.587339,0.14802547,4.423773,3.1733668,0
162839773,0.9269639,0.01993803,0.10688394,0.3590491,-1.8180622,1.0758989,9.657748,-1.2885755,4.3122454,3.3403137,0
162873107,0.9264197,0.019086357,0.10768109,0.3602599,-1.7833406,1.0567205,9.481076,-1.9779415,3.5644217,3.7668579,0
162906441,0.92581844,0.018264772,0.108784385,0.3615147,-1.8362974,1.0247964,9.549985,-1.5167145,4.5260835,3.9731433,0
162939775,0.9252094,0.017399883,0.109598905,0.36286774,-1.7940252,1.0803448,9.554916,-2.0506623,3.6696002,4.300979,0
162973109,0.92452437,0.0164653,0.11075447,0.36430392,-1.8487513,1.0637448,9.431847,-1.8755038,4.875275,4.6184945,0
163006443,0.9238485,0.015806343,0.112153664,0.36561745,-1.9461514,1.0369666,9.482015,-0.6496601,5.293383,4.313652,0
163039777,0.92312765,0.015004233,0.1135208,0.3670467,-1.8830043,1.0359071,9.470537,-1.1879243,5.3943048,4.6882515,0
163073111,0.92238814,0.013750637,0.11464802,0.36860153,-2.0187666,1.0111606,9.481596,-2.9725294,5.2161617,4.95091,0
163106445,0.9216727,0.012194092,0.11585442,0.37006605,-2.0045412,1.0189658,9.579858,-3.7992313,5.836643,4.515641,0
163139779,0.9209308,0.0104787,0.11698659,0.37160587,-1.9935457,1.0375413,9.586864,-4.426846,5.817658,4.7319283,0
163173113,0.9201797,0.00897089,0.11808777,0.3731549,-2.1133447,0.9470241,9.627958,-3.8137348,5.458562,4.86167,0
163206447,0.9194713,0.007935815,0.11899882,0.37463182,-2.0791965,0.906444,9.584304,-2.5342312,4.2306857,4.778734,0
163239781,0.91874063,0.0068442076,0.1200922,0.376094,-2.1229467,0.9221343,9.55887,-2.4715629,4.888145,4.7347894,0
163273115,0.91802067,0.0056012124,0.1208407,0.37762988,-2.1385658,0.93160933,9.684563,-3.4270332,3.9916556,4.903296,0
163306449,0.91731083,0.0046797395,0.12150048,0.37915254,-2.1026442,0.8902721,9.518553,-2.5222316,3.2897007,4.9845133,0
163339783,0.9165475,0.0037138388,0.12231015,0.38074583,-2.1710598,0.91664726,9.579663,-2.4959977,3.8436327,5.2578907,0
163373117,0.9158195,0.0026652638,0.12273776,0.3823649,-2.1867254,0.8767066,9.5971775,-3.2689638,2.733213,5.2667975,0
163406451,0.91508216,0.0016762032,0.12318947,0.3839875,-2.224151,0.8943652,9.53062,-3.0518508,2.7347689,5.317209,0
163439785,0.9143542,0.00075663667,0.12384666,0.38550997,-2.2885892,0.8530128,9.519034,-2.5209248,3.284238,5.021862,0
163473119,0.9136067,0.00028968393,0.124489084,0.38707298,-2.2301342,0.8790044,9.483288,-1.1359943,2.6452906,5.3714375,0
163506453,0.9128647,-0.00021367727,0.12502435,0.38864806,-2.248883,0.87123954,9.484601,-1.3994658,2.3542912,5.390134,0
163539787,0.9121164,-0.0007759322,0.12583835,0.39013848,-2.233851,0.85224086,9.396659,-1.1765585,3.3098323,5.110803,0
163573121,0.9113401,-0.0011541509,0.1266448,0.3916875,-2.2695742,0.8376253,9.354404,-0.6356307,3.0505862,5.414377,0
163606455,0.9105676,-0.0016434,0.12747411,0.39321047,-2.340377,0.852059,9.398184,-0.94217634,3.2691007,5.2823176,0
163639789,0.90975076,-0.0024973408,0.12827954,0.39483154,-2.3396502,0.8822878,9.40731,-2.1605093,3.704947,5.493367,0
163673123,0.90892476,-0.003419272,0.12913996,0.39644313,-2.426903,0.88176864,9.50871,-2.2957256,3.9725614,5.451619,0
163706457,0.90814537,-0.004833572,0.12980549,0.39799383,-2.3653862,0.91241944,9.508939,-4.0737863,4.013919,4.9817853,0
163739791,0.90732056,-0.0061476724,0.13065699,0.3995753,-2.374918,0.867676,9.363731,-3.5229337,4.477209,5.192931,0
163773125,0.9064829,-0.007008872,0.1315357,0.401171,-2.4100225,0.8988565,9.419097,-2.081494,3.9450212,5.4647193,0
163806459,0.9055951,-0.00814692,0.13245235,0.40284953,-2.3813748,0.8986835,9.415151,-2.9324257,4.4654465,5.671684,0
163839793,0.90464586,-0.008836388,0.13384566,0.40450382,-2.466509,0.852163,9.458703,-0.8682007,5.3564935,5.9032803,0
163873127,0.9037057,-0.009407055,0.13487291,0.40624732,-2.4930146,0.8575967,9.589439,-1.0499872,4.0455647,6.2160635,0
163906461,0.90282494,-0.010138918,0.13556635,0.4079537,-2.5378447,0.80004174,9.459421,-1.9991238,3.2068431,5.9371653,0
163939795,0.90196705,-0.011005499,0.13641892,0.4095415,-2.552496,0.78328687,9.458325,-2.138169,3.8821166,5.4814196,0
163973129,0.9011442,-0.012119378,0.13705552,0.4111059,-2.51035,0.8562849,9.405164,-3.1974273,3.544457,5.2388015,0
164006463,0.9002375,-0.013479631,0.13773333,0.41282016,-2.5505686,0.8314113,9.329399,-3.9781613,4.0536575,5.7111855,0
164039797,0.89933175,-0.01521224,0.13828155,0.41454694,-2.5809467,0.8086235,9.500831,-5.3218384,4.179879,5.571573,0
164073131,0.89852756,-0.01648634,0.13889807,0.41603348,-2.543983,0.8150277,9.442984,-3.688622,3.7020915,4.9086866,0
164106465,0.89762163,-0.017584184,0.1396003,0.41770566,-2.4999716,0.82162607,9.46579,-3.1174777,3.7535791,5.719803,0
164139799,0.89670336,-0.018578917,0.1401676,0.4194414,-2.5516574,0.83273995,9.526945,-3.0258417,3.1920269,5.9781656,0
164173133,0.895756,-0.019406829,0.1406946,0.42124775,-2.601339,0.78069663,9.443364,-2.6071444,2.8376427,6.3187566,0
164206467,0.89485,-0.019607596,0.14158659,0.42286205,-2.6883223,0.767152,9.451477,-0.052698173,3.0458484,5.9973755,0
164239801,0.89397615,-0.019854339,0.14252587,0.4243809,-2.6419082,0.77601093,9.456406,-0.078400515,3.248457,5.642714,0
164273135,0.8931216,-0.02053944,0.14333208,0.4258733,-2.6890686,0.8123031,9.387949,-1.6064807,3.4711726,5.312119,0
164306469,0.8922195,-0.021026654,0.14391178,0.42754176,-2.6932454,0.8319657,9.417489,-1.4229462,2.4969096,6.0095396,0
164339803,0.8913009,-0.021364946,0.14461708,0.42919958,-2.717996,0.82077473,9.35963,-0.7792413,2.6719027,6.087147,0
164373137,0.89031607,-0.021669755,0.14532991,0.4309838,-2.7004867,0.77235276,9.308937,-0.735847,2.668842,6.595707,0
164406471,0.8892689,-0.022359438,0.14610499,0.43284467,-2.7397995,0.73392296,9.338502,-1.8647918,3.4545991,6.7361526,0
164439805,0.8883286,-0.023016706,0.14684094,0.43448865,-2.836941,0.7107519,9.351444,-1.7069916,3.2488928,5.9292064,0
164473139,0.88746107,-0.023618195,0.14749497,0.4360052,-2.8541186,0.82141995,9.375611,-1.5900564,2.8876956,5.458297,0
164506473,0.8865584,-0.024504805,0.14790894,0.43764907,-2.844862,0.8583498,9.370716,-2.8892741,2.5894039,5.7397294,0
164539807,0.88564235,-0.025721801,0.14836718,0.4392759,-2.854292,0.8441928,9.384063,-3.8250995,3.2294018,5.5506244,0
164573141,0.88464534,-0.026986385,0.14879577,0.44106027,-2.7879362,0.8863568,9.343256,-4.104547,3.2382708,6.1299853,0
164606475,0.88352984,-0.02815033,0.14936571,0.4430267,-2.8354774,0.8441695,9.32761,-3.6914854,3.5598266,6.93372,0
164639809,0.88246846,-0.028731719,0.14981438,0.44494906,-2.8610322,0.76635695,9.363726,-2.0813153,2.2805789,7.0096984,0
164673143,0.8814055,-0.029223911,0.15047029,0.4467987,-2.828759,0.7463257,9.305873,-1.4578184,2.7806287,6.8617277,0
164706477,0.8803442,-0.029533688,0.15150908,0.44851655,-2.9104555,0.77432203,9.413402,-0.25003776,3.672688,6.5964565,0
164739811,0.8787112,-0.029816916,0.15206163,0.45150304,-2.951354,0.7332323,9.365252,-0.33511677,2.02408,6.839572,0
164773145,0.877167,-0.030399373,0.15247546,0.4543184,-2.958898,0.76643056,9.271152,-1.4869719,2.0668788,6.457757,0
164806479,0.8756122,-0.031112198,0.15304011,0.45707136,-2.9428463,0.84694034,9.341252,-1.5954354,2.7305942,6.172226,0
164839813,0.87413204,-0.0318803,0.15345824,0.45970377,-2.946827,0.82034224,9.251972,-2.1950998,2.4132018,6.5743084,0
164873147,0.8726605,-0.032638613,0.15401931,0.46225142,-2.9800656,0.7942089,9.263967,-1.9128538,2.8352158,6.389057,0
164906481,0.8716541,-0.033257082,0.15465719,0.4638904,-2.940819,0.8802883,9.30257,-1.7601124,2.9138212,6.1093025,0
164939815,0.8706037,-0.033874307,0.1552124,0.46562955,-2.9554234,0.8707394,9.225071,-1.9488075,2.6762311,6.4739575,0
164973149,0.8695003,-0.03452873,0.15589638,0.46741164,-3.0237691,0.8405707,9.157589,-1.8857045,3.1439517,6.6870174,0
165006483,0.8683754,-0.035018627,0.15687154,0.46913666,-3.0015635,0.8131638,9.160914,-0.8996277,3.7673402,6.676567,0
165039817,0.86727643,-0.035589296,0.15787494,0.47078723,-3.0359805,0.8381795,9.219839,-1.0536753,3.97657,6.3761168,0
165073151,0.86609244,-0.03637644,0.15879202,0.47259507,-2.9690905,0.9281109,9.351476,-1.9364434,4.096335,6.8580656,0
165106485,0.86480916,-0.037560783,0.15937436,0.4746519,-3.1120107,0.8849198,9.455221,-3.8131402,3.7687948,7.5044875,0
165139819,0.86359644,-0.03803788,0.1599627,0.47661987,-3.1914487,0.8880937,9.40137,-1.6452461,2.6053169,7.5170946,0
165173153,0.86240274,-0.038190074,0.16048615,0.4785891,-3.1838121,0.9341836,9.333203,-0.78730303,1.8689957,7.6633997,0
165206487,0.86123735,-0.038295392,0.16089165,0.48053887,-3.0785584,1.0208806,9.264173,-0.83077407,1.4286036,7.5735297,0
165239821,0.8599275,-0.038660623,0.16170527,0.48257837,-2.9601614,1.0185573,9.146731,-0.99829435,3.1351414,7.9917746,0
165273155,0.85840714,-0.039267395,0.1627336,0.48488468,-3.063959,1.0008582,9.261416,-1.5355153,4.252754,9.0267315,0
165306489,0.8567903,-0.040103093,0.16359122,0.48738092,-3.1782026,0.9484087,9.505874,-2.6172445,4.1592884,9.599249,0
165339823,0.8552694,-0.04027288,0.1639034,0.4899266,-3.2881818,0.8587497,9.521617,-1.5857867,1.3768094,9.885974,0
165373157,0.8539411,-0.039552122,0.16421153,0.49219406,-3.230507,0.8529968,9.334164,1.2083416,-0.20590715,9.247206,0
165406491,0.8526049,-0.03927692,0.1645113,0.49442723,-3.096083,0.831864,9.281717,-0.09600931,0.53199875,8.908892,0
165439825,0.8511985,-0.039742187,0.16462116,0.49677122,-3.1705585,0.88528347,9.266966,-2.6613612,1.2591379,8.909815,0
165473159,0.84980226,-0.040387698,0.16454872,0.49912792,-3.206934,0.89836,9.374507,-3.506479,1.0256842,8.804559,0
165506493,0.84849733,-0.040517174,0.16433361,0.50140315,-3.1535044,1.004895,9.274176,-2.1861808,-0.31718165,8.684114,0
165539827,0.84704036,-0.04087088,0.16428028,0.5038495,-3.0889347,1.0501835,9.176385,-2.681525,0.6036825,9.344245,0
165573161,0.84557366,-0.041252684,0.16413581,0.5063229,-3.144636,1.0514545,9.150249,-2.9403734,0.38893893,9.414148,0
165606495,0.8439441,-0.041723624,0.1640178,0.5090343,-3.0956209,1.1720787,9.105286,-3.3138537,0.67917633,10.345093,0
165639829,0.8421101,-0.042119656,0.16413143,0.51199394,-3.1293247,1.1440474,9.070367,-2.8643694,1.3000036,11.502195,0
165673163,0.84013706,-0.04252365,0.16445571,0.51508826,-3.235146,1.1468061,9.210016,-2.6167078,1.9827183,12.1667595,0
165706497,0.83807766,-0.042982724,0.16451888,0.5183746,-3.1988058,1.0921925,9.229499,-3.3626676,1.3461908,12.807799,0
165739831,0.83598876,-0.043834824,0.1644478,0.5216882,-3.207722,1.0204498,9.247179,-4.7567906,1.672376,12.701272,0
165773165,0.83388793,-0.044326264,0.16427389,0.5250527,-3.179563,1.0049257,9.307019,-3.9366696,0.7287313,13.0586405,0
165806499,0.83181846,-0.044529904,0.16437173,0.5282778,-3.1777585,0.94175494,9.1909895,-2.5389035,0.99181265,12.808158,0
165839833,0.82969344,-0.04471056,0.16461608,0.53151846,-3.1563792,0.99804026,9.325022,-2.2255056,1.3977684,12.991289,0
165873167,0.8274841,-0.045150146,0.16431892,0.535006,-3.1928933,1.0067214,9.36522,-4.1071043,0.33643335,13.62083,0
165906501,0.8253442,-0.04578035,0.16389212,0.53837854,-3.2554882,0.99636596,9.378594,-4.8128886,0.29667592,13.039522,0
165939835,0.8231003,-0.046540394,0.16311936,0.5419712,-3.1408303,0.9749638,9.332031,-5.96261,-0.42085636,13.730186,0
165973169,0.8209119,-0.04710208,0.16241522,0.5454422,-3.2038472,0.8536469,9.268343,-5.196992,-0.6078359,13.407406,0
166006503,0.8187587,-0.04762096,0.16144934,0.5489092,-3.1508834,0.9196035,9.361939,-5.559009,-1.4463149,13.31299,0
166039837,0.81677777,-0.047802996,0.16061881,0.5520789,-3.1193202,0.8622055,9.304844,-4.1617346,-1.7479942,12.359435,0
166073171,0.814869,-0.047633708,0.1600563,0.5550696,-3.0959249,0.8499648,9.25567,-2.5560246,-1.6725767,11.960422,0
166106505,0.812994,-0.04738897,0.15950641,0.55799043,-3.114937,0.84289104,9.303457,-2.2762823,-1.7884614,11.745416,0
166139839,0.811208,-0.04742263,0.1586146,0.56083375,-3.139899,0.8575162,9.41171,-3.6524613,-2.2466733,11.15073,0
166173173,0.80955034,-0.047644883,0.157329,0.56356585,-3.0965557,0.9140683,9.400442,-4.8558636,-3.0331898,10.42826,0
166206507,0.8079578,-0.047826245,0.15623322,0.5661346,-2.977623,0.8352243,9.3434105,-4.275081,-2.5926566,9.901505,0
166239841,0.80635065,-0.047988832,0.15485896,0.56878394,-2.9961567,0.8452335,9.3264675,-4.809997,-3.4075322,10.11981,0
166273175,0.8048301,-0.048034135,0.15333691,0.5713402,-2.9654388,0.8648118,9.45383,-4.709531,-4.077165,9.731042,0
166306509,0.80348235,-0.047541082,0.15195301,0.5736435,-2.9345856,0.88038313,9.446421,-2.786141,-4.801095,8.998175,0
166339843,0.80218846,-0.046714377,0.15067446,0.5758553,-2.972849,0.79384875,9.388461,-1.5998228,-5.181066,8.831897,0
166373177,0.8009919,-0.04627194,0.14919785,0.5779374,-2.9721155,0.7781952,9.480555,-2.9680614,-4.996417,8.052834,0
166406511,0.80007964,-0.044920336,0.14776267,0.57967365,-2.8996017,0.7580814,9.447264,-0.15865807,-6.7794724,7.011028,0
166439845,0.7993126,-0.04329554,0.14637378,0.5812059,-2.810398,0.7593711,9.391494,0.81218946,-7.2389197,6.3084197,0
166473179,0.7985986,-0.042929497,0.14445372,0.5826929,-2.7179973,0.87796867,9.67407,-3.6763353,-6.202922,5.3680778,0
166506513,0.7979102,-0.04301331,0.14193328,0.5842472,-2.683065,0.9462313,9.761062,-6.142665,-6.9713264,5.1892276,0
166539847,0.7972404,-0.04299189,0.13902102,0.5858612,-2.8165224,0.92648983,9.888819,-6.66712,-8.274064,5.30911,0
166573181,0.7967842,-0.041572813,0.13596863,0.58729875,-2.786267,0.8883851,9.780376,-3.003179,-11.549074,5.0445127,0
166606515,0.79654604,-0.039641272,0.13329494,0.5883674,-2.6426888,0.8743439,9.565914,-0.6315082,-11.595606,3.8892488,0
166639849,0.79623467,-0.037924927,0.13054532,0.58951724,-2.5081751,0.9480492,9.540675,-1.4217509,-11.345872,4.1526785,0
166673183,0.7956704,-0.036314853,0.1273731,0.59107256,-2.4133182,0.9700691,9.428572,-2.7847033,-12.225992,5.6717386,0
166706517,0.795268,-0.034257032,0.1246228,0.59232175,-2.361055,0.90466744,9.210303,-0.5494192,-12.014131,4.756817,0
166739851,0.79482543,-0.03227925,0.122162625,0.59353834,-2.2518234,0.86958766,9.046788,-0.16910177,-11.037021,4.751924,0
166773185,0.79450625,-0.030552546,0.1201435,0.5944684,-2.2207482,0.7480335,8.885031,0.17814618,-9.339748,3.6653776,0
166806519,0.7942595,-0.029269688,0.11861429,0.59516925,-2.1006684,0.78104496,9.004718,0.069817066,-7.100838,2.7611437,0
166839853,0.79390144,-0.028023772,0.11727914,0.5959711,-2.1299198,0.7270296,8.900256,0.3137142,-6.460155,3.2725594,0
166873187,0.79360515,-0.02772988,0.11638633,0.5965542,-2.115767,0.69247997,8.850391,-1.2835677,-3.306933,2.2108722,0
166906521,0.7935405,-0.028187355,0.11576461,0.59673965,-2.183958,0.6982057,9.0696335,-2.5961163,-1.0818613,0.3826314,0
166939855,0.79350907,-0.028261537,0.11538445,0.5968514,-2.131365,0.7097235,8.960635,-1.0222092,-1.2161869,0.29398575,0
166973189,0.79353064,-0.029218415,0.115319334,0.5967894,-2.0824652,0.73795575,9.077465,-2.7093246,1.4495927,-0.60388356,0
167006523,0.79362303,-0.030712787,0.11520045,0.5966144,-2.0814404,0.8136385,9.286844,-4.234101,2.3889453,-1.2723178,0
167039857,0.7937017,-0.031607546,0.11568929,0.59636843,-2.1167645,0.8613502,9.353906,-1.3258222,2.8304307,-1.1342841,0
167073191,0.7937889,-0.03249492,0.11636897,0.5960723,-2.170575,0.84222686,9.615664,-0.8943827,3.3384778,-1.263641,0
167106525,0.79399204,-0.03331185,0.11694908,0.5956431,-2.1186967,0.88387203,9.628115,-0.8406986,2.8919017,-1.8448062,0
167139859,0.7941704,-0.03440659,0.11734739,0.59526455,-2.2246792,0.8981941,9.865069,-1.9950951,2.9697132,-1.789009,0
167173193,0.7942865,-0.03575698,0.116767235,0.5951443,-2.2096937,0.91024303,9.946493,-4.80732,0.81704867,-1.176507,0
167206527,0.7944122,-0.03666812,0.11616035,0.5950396,-2.26753,0.82386845,9.854364,-3.668469,-0.15943909,-0.98106897,0
167239861,0.7946784,-0.0366277,0.11562346,0.5947911,-2.2027497,0.7784432,9.702549,-0.8518847,-1.9520719,-1.2711647,0
167273195,0.7949869,-0.03658386,0.11499806,0.5945028,-2.1494803,0.7435158,9.629709,-1.0026731,-2.2117014,-1.4746127,0
167306529,0.79543996,-0.03657641,0.114476405,0.5939978,-2.1777954,0.76025075,9.597985,-0.78596425,-1.8827963,-2.3652883,0
167339863,0.79585695,-0.036408737,0.11415004,0.59351194,-2.1958573,0.7591938,9.607059,0.038358226,-1.6634492,-2.1501162,0
167373197,0.7962958,-0.036520295,0.11331555,0.5930763,-2.2326462,0.72544026,9.591524,-1.7796283,-2.4983077,-2.2290351,0
167406531,0.79675806,-0.03736826,0.11185503,0.5926799,-2.15706,0.6608393,9.508145,-5.08445,-2.7245715,-2.5331166,0
167439865,0.79733914,-0.03802742,0.11069201,0.5920746,-2.114376,0.5777864,9.414172,-3.865297,-2.3129427,-3.2345967,0
167473199,0.79801947,-0.03740337,0.11014153,0.59129983,-2.0815995,0.6755432,9.442803,0.9763852,-3.2608244,-3.3309264,0
167506533,0.7987256,-0.036627915,0.11020361,0.5903826,-2.0937166,0.70601946,9.45918,2.69382,-1.8787115,-3.6371777,0
167539867,0.79940206,-0.03633738,0.11021176,0.58948284,-2.1706378,0.7576825,9.494155,1.2419183,-1.0329348,-3.7189903,0
167573201,0.80007213,-0.036589425,0.10986788,0.58862174,-2.1427808,0.7631368,9.513257,-0.97902,-0.9032576,-3.847867,0
167606535,0.80060655,-0.037148353,0.10889241,0.58804077,-2.1325004,0.74702346,9.562603,-3.2247355,-2.0032785,-2.9993052,0
167639869,0.80123436,-0.037694715,0.10804163,0.5873078,-2.1887157,0.7428447,9.638262,-2.869987,-1.7009207,-3.584883,0
167673203,0.8019767,-0.037911747,0.10728782,0.5864182,-2.0938516,0.8158833,9.71884,-1.6951385,-2.1209624,-4.1133366,0
167706537,0.802666,-0.037432045,0.10646307,0.5856556,-2.0745826,0.83245593,9.640232,0.027908247,-3.7173195,-3.411555,0
167739871,0.80319667,-0.036728546,0.10583007,0.58508724,-2.0298202,0.9098232,9.664095,0.9386255,-3.6050904,-2.4528775,0
167773205,0.8035612,-0.036176685,0.104851104,0.584797,-1.9766194,0.9412722,9.638567,-0.29963025,-4.2291126,-1.4562681,0
167806539,0.8037114,-0.035619754,0.104039274,0.58476985,-2.0438945,0.93022674,9.520645,-0.07278491,-3.7324243,-0.28286672,0
167839873,0.8037463,-0.035011966,0.10350627,0.5848532,-2.0095854,0.8701318,9.509904,0.5726904,-3.0364883,0.30233556,0
167873207,0.80384654,-0.03421976,0.10311692,0.584831,-1.9874889,0.8321134,9.375478,1.4154444,-3.020903,-0.045091163,0
167906541,0.8038513,-0.033472195,0.10260013,0.58495873,-1.8906056,0.8210156,9.481124,0.9698602,-3.2669644,0.52897596,0
167939875,0.8036811,-0.033129204,0.1019643,0.58532333,-1.8525182,0.8037513,9.570404,-0.49219292,-2.746815,1.3745345,0
167973209,0.8034637,-0.033097632,0.101199836,0.58575565,-1.8876934,0.7572221,9.6814995,-1.6409547,-2.4660294,1.5272759,0
168006543,0.8032851,-0.03349136,0.10010877,0.5861659,-1.9591944,0.6978997,9.950387,-3.4620888,-2.521648,1.2033458,0
168039877,0.803133,-0.033687606,0.09840831,0.5866509,-1.9825387,0.6665434,10.083437,-4.166382,-4.6199894,1.3439151,0
168073211,0.80309033,-0.03378055,0.09576925,0.5871403,-1.8709527,0.6711403,10.170958,-5.763376,-7.4564347,1.0637319,0
168106545,0.8031811,-0.033423565,0.09304982,0.5874736,-1.8716687,0.6134784,10.141134,-4.616695,-8.611186,0.50080895,0
168139879,0.80340904,-0.031859934,0.09069575,0.58761716,-1.7297535,0.59147835,10.060501,-0.46959668,-10.060671,0.11729033,0
168173213,0.80376136,-0.03033086,0.088202044,0.5875957,-1.6353395,0.4983526,10.2150755,-0.78237957,-10.395615,-0.612932,0
168206547,0.8042066,-0.028213676,0.084963605,0.58756924,-1.475268,0.4041932,10.154307,-0.6493669,-13.666794,-0.71602416,0
168239881,0.8047543,-0.024811348,0.082092255,0.58738095,-1.5645244,0.37708023,9.900614,3.7039065,-15.260009,-0.9609981,0
168273215,0.80539393,-0.021388413,0.07920688,0.587035,-1.5317171,0.37342405,9.809971,3.786175,-15.352202,-1.5754874,0
168306549,0.80621505,-0.018782021,0.0755816,0.58647484,-1.5539954,0.30339566,9.582733,0.10522054,-15.786372,-2.8047736,0
168339883,0.8071828,-0.017431391,0.071521506,0.58569425,-1.3848335,0.10099059,9.454199,-4.183285,-14.484292,-4.053941,0
168373217,0.8085232,-0.016726043,0.06743206,0.5843494,-1.2132425,-0.03074931,9.37308,-5.8688183,-13.324132,-6.51622,0
168406551,0.80987877,-0.016118458,0.06303714,0.58297825,-1.1278365,0.043613233,9.285947,-6.743524,-13.978329,-6.6475916,0
168439885,0.8112296,-0.016690014,0.05766941,0.58163816,-1.0749204,-0.053504795,9.297258,-11.979983,-14.3242,-6.8495526,0
168473219,0.81288856,-0.018131252,0.052364886,0.57977766,-0.98291373,-0.19230306,9.302004,-14.154466,-12.440478,-9.069762,0
168506553,0.8149565,-0.019360216,0.048862305,0.5771346,-0.84929436,-0.12988621,9.4788265,-9.799646,-7.8527846,-11.907836,0
168539887,0.81707144,-0.020057954,0.046063695,0.5743437,-0.78264695,-0.30285773,9.629172,-6.883744,-6.931454,-12.271349,0
168573221,0.81975687,-0.02005469,0.043766282,0.5706852,-0.8863272,-0.17017156,9.8211775,-3.744612,-6.937422,-15.672826,0
168606555,0.82251894,-0.021272691,0.041224193,0.56684315,-0.9690213,0.08212701,10.238977,-7.631509,-5.2293706,-16.53461,0
168639889,0.8254402,-0.021682488,0.03777778,0.56280714,-1.0981774,0.11359737,10.303549,-7.0690403,-9.370476,-17.341883,0
168673223,0.82883453,-0.023398578,0.033854857,0.55797905,-0.9785267,0.20453742,10.188454,-11.560042,-8.199332,-20.7067,0
168706557,0.8326379,-0.024760593,0.029822547,0.5524603,-0.9201762,0.09350393,9.915084,-10.649072,-9.183427,-23.430763,0
168739891,0.8376855,-0.025344513,0.027882565,0.54485214,-1.2983239,0.029846624,9.855146,-4.1289296,-4.6238704,-31.516565,0
168773225,0.834933,-0.026188208,0.026814071,0.54907465,-0.34155983,-0.13097315,10.127303,-5.061496,-1.9137255,17.217855,0
168806559,0.8263353,-0.03461949,0.022439037,0.5616661,-0.18384898,-0.070198834,9.761452,-34.379288,2.7060921,51.267464,0
168839893,0.82175225,-0.0440939,0.015385427,0.5679286,-1.1504561,0.7567513,8.652729,-41.550434,-2.4468563,25.11675,0
168873227,0.8209222,-0.051011957,0.005610775,0.56872976,-0.9262115,0.041485123,8.825151,-38.791645,-14.499706,2.058373,0
168906561,0.8228696,-0.053638022,-0.0018771914,0.5656906,-0.33594924,-0.15580685,9.027451,-21.650785,-15.820064,-13.73964,0
168939895,0.8249385,-0.056006048,-0.008099709,0.56238335,-0.19356988,-0.15877625,9.176067,-18.444778,-12.6854,-14.53522,0
168973229,0.82584554,-0.047274552,-0.010873255,0.5618065,-0.27616766,-0.5233633,9.166391,19.547287,-24.918228,-4.211134,0
169006563,0.8231608,-0.027588524,-0.0076371487,0.56708694,-0.099659964,-0.17436223,9.442214,61.889908,-30.098291,19.906687,0
169039897,0.82166266,-0.0038555788,-0.0015549696,0.56995964,-0.033573814,0.14425018,9.748167,78.937904,-29.673645,10.922981,0
169073231,0.8226227,0.010047895,0.0031976618,0.5684904,0.37686205,0.9002594,9.802282,48.56469,-14.094909,-6.151211,0
169106565,0.82377857,0.019002026,0.0067544696,0.56655365,-0.16859846,0.6594486,9.900964,32.220837,-7.8225985,-7.896236,0
169139899,0.8274298,0.022884058,0.0089270035,0.5610325,0.19551395,0.914656,9.787484,15.07686,-2.1594934,-22.945026,0
169173233,0.83155715,0.020452432,0.009797555,0.55497664,0.425895,0.8977022,9.9049425,-5.4199643,6.2574215,-25.49805,0
169206567,0.83475876,0.016850397,0.00949024,0.5502768,0.2119513,0.61896616,10.008558,-10.99739,5.251608,-19.828794,0
169239901,0.83647144,0.01225075,0.008581299,0.54780716,0.2572755,0.7002732,9.933076,-14.987144,5.591854,-10.6236515,0
169273235,0.83738095,0.009030877,0.0071108188,0.5464995,0.007668931,0.33541512,9.7240095,-12.080139,1.4532459,-5.7198167,0
169306569,0.83795184,0.0067753857,0.006023314,0.5456695,0.11017912,0.30383152,9.631298,-8.586462,0.7680329,-3.7028065,0
169339903,0.83830744,0.005961435,0.0053710663,0.5451393,-0.052901346,0.34133646,9.771559,-3.6195807,-0.66992587,-2.4209383,0
169373237,0.83886755,0.004238938,0.0042737057,0.54430294,0.067518994,0.24678428,9.8588915,-7.072069,-0.25994992,-3.7000139,0
169406571,0.8394684,0.002705862,0.0029757936,0.5433944,-0.024601905,0.24504061,9.920265,-6.9013286,-1.193713,-3.9818625,0
169439905,0.83991116,0.0003908664,0.0012183883,0.5427231,0.031867385,0.26523036,9.876734,-10.018973,-1.0544702,-3.0140815,0
169473239,0.8402764,-0.0010444463,0.00015784147,0.542158,0.039217766,0.080879174,9.638694,-6.1808805,-0.68229085,-2.567086,0
169506573,0.84067374,-0.0020038153,-0.00069048244,0.5415386,0.048630536,0.08002184,9.828044,-4.4109883,-0.9554372,-2.7864258,0
169539907,0.84114957,-0.0029373395,-0.0016629498,0.5407927,0.08862689,0.18271416,9.77492,-4.5684247,-1.3604513,-3.3044753,0
169573241,0.84161586,-0.003848612,-0.0022538542,0.54005903,0.046012796,0.1621111,9.815976,-3.7973342,-0.29772216,-3.2589166,0
169606575,0.8422859,-0.0045028822,-0.0032424065,0.5390033,0.054609496,0.01760294,9.717204,-3.7936776,-1.9188979,-4.585725,0
169639909,0.84294426,-0.005848102,-0.0041652485,0.53795373,0.1370803,0.08274746,9.690874,-5.6740556,-0.4476911,-4.5447655,0
169673243,0.8436775,-0.0067531522,-0.004944368,0.5367858,0.08626957,0.01575787,9.634221,-4.134788,-0.84059656,-5.0378737,0
169706577,0.84425426,-0.0072434335,-0.0050160615,0.535871,0.049651187,-0.012969174,9.675095,-1.627252,0.4379741,-4.0131974,0
169739911,0.84472066,-0.0077290507,-0.0053231055,0.5351258,0.007445943,-0.030264918,9.790348,-2.0481648,-0.259668,-3.329645,0
169773245,0.84502834,-0.008153921,-0.005223702,0.5346345,0.058916766,0.016797535,9.720602,-1.1248267,0.7993372,-2.295993,0
169806579,0.84530073,-0.0080918595,-0.005325471,0.5342036,0.023062248,-0.0041879714,9.799162,-0.08165329,-0.68207896,-2.0801609,0
169839913,0.8456316,-0.008390794,-0.005663451,0.5336715,0.09971997,-0.042081814,9.740295,-1.566127,-0.7014486,-2.488408,0
169873247,0.845971,-0.00900523,-0.005895863,0.5331208,0.056694023,-0.045334168,9.7946,-2.2909858,0.18570171,-2.5554755,0
169906581,0.8462434,-0.008512138,-0.0058669155,0.5326967,0.07979295,0.022314332,9.834993,1.4079461,-1.0889878,-2.0869997,0
169939915,0.84651953,-0.00807842,-0.00561615,0.5322673,0.08438932,-0.004706274,9.821056,1.6393185,-0.33446348,-2.1136692,0
169973249,0.8467349,-0.00822901,-0.0055712317,0.53192294,0.054438055,-0.03561151,9.886939,-0.43909132,0.13225438,-1.7556546,0
170006583,0.8469075,-0.008583282,-0.005817938,0.5316395,0.066617705,-0.042797163,9.872503,-1.5663382,-0.3465014,-1.5079862,0
170039917,0.8469846,-0.009004053,-0.0062061534,0.5315054,0.062233225,-0.09570608,9.947311,-2.019664,-0.6426611,-0.91062135,0
170073251,0.8470699,-0.009426232,-0.0070986105,0.53135103,0.039073024,-0.11438016,10.1911335,-2.94605,-2.106914,-1.0054203,0
170106585,0.84724987,-0.00979448,-0.008218213,0.53104115,-0.019969154,-0.17615542,10.075543,-3.2058399,-2.8591657,-1.6474029,0
170139919,0.8474791,-0.00879486,-0.00899213,0.53068036,0.11711328,-0.21273321,9.831133,1.4089453,-4.346771,-1.91398,0
170173253,0.847682,-0.007831442,-0.009726738,0.5303583,0.20908934,-0.13526364,9.759888,1.3754824,-4.168289,-1.7421446,0
170206587,0.84783894,-0.007039938,-0.010076661,0.5301119,0.079345755,-0.14470907,9.694264,1.5748261,-2.7367177,-1.4444734,0
170239921,0.8481102,-0.0058613373,-0.010524971,0.5296835,0.012076771,-0.131394,9.781917,2.5195317,-3.7216291,-2.1992288,0
170273255,0.8485329,-0.0050595105,-0.011382353,0.5289967,0.17185062,-0.08087632,9.723891,0.66919285,-4.2188745,-3.2198632,0
170306589,0.8489251,-0.005570355,-0.012190662,0.5283438,0.20892924,-0.07819937,9.651435,-3.0735567,-1.689299,-3.053438,0
170339923,0.8493711,-0.005526791,-0.0128168715,0.527612,0.1455498,-0.1234523,9.714616,-1.1201909,-2.1631913,-3.2880309,0
170373257,0.8498202,-0.0051768865,-0.013477856,0.52687556,0.25343096,-0.09253735,9.698502,-0.27410075,-2.825312,-3.0966911,0
170406591,0.8502654,-0.005412581,-0.014073441,0.5261388,0.24953684,-0.22015283,9.854574,-1.8962238,-1.5640525,-3.4805744,0
170439925,0.850809,-0.004725393,-0.014218249,0.5252623,0.30737478,-0.1112211,9.895067,1.6075976,-1.9070132,-4.1600795,0
170473259,0.85156405,-0.003716254,-0.014312897,0.5240423,0.20001295,-0.1572666,9.863683,2.6330802,-2.328273,-5.457782,0
170506593,0.85229933,-0.0022316265,-0.014291975,0.52285504,0.20062515,0.113161,9.949967,4.2119436,-2.8440745,-5.645523,0
170539927,0.8527398,-0.0013218513,-0.0147864185,0.52212566,0.29586515,0.17956805,9.947591,1.6008809,-3.3368943,-3.984268,0
170573261,0.8529165,-0.0014978477,-0.015863402,0.52180475,0.16583516,-0.10878636,9.895897,-2.606778,-3.1121807,-2.2044857,0
170606595,0.8533674,-0.0013272766,-0.016809471,0.52103794,0.27748054,-0.24741544,10.025493,-1.3219167,-3.3452888,-3.2759678,0
170639929,0.8540492,-0.00094341283,-0.018323023,0.5198694,0.3693035,-0.39241204,9.792888,-1.7114804,-5.3816867,-4.6018753,0
170673263,0.8550113,-0.00032604003,-0.019029392,0.51826054,0.3200214,-0.55384636,9.714517,0.39283827,-3.4099815,-6.403929,0
170706597,0.85629374,0.00090178323,-0.019723287,0.51611215,0.22837251,-0.513553,9.911012,2.3051744,-4.463255,-7.0839815,0
170739931,0.85740805,0.0018044157,-0.0209052,0.5142096,0.20571928,-0.5159319,9.952195,0.2905669,-5.296675,-8.52945,0
170773265,0.8586904,0.0023817043,-0.02259591,0.51199126,0.23671399,-0.39637217,9.969359,-1.5341202,-6.221925,-9.0951185,0
170806599,0.8599574,0.0023718644,-0.024680855,0.5097641,0.3189213,-0.2885187,9.9057865,-4.052623,-6.340104,-10.035046,0
170839933,0.86089015,0.003076335,-0.026908083,0.5080705,0.44589093,-0.29526502,9.736733,-2.3726382,-7.998476,-10.271877,0
170873267,0.8624708,0.0046524685,-0.02826459,0.50529635,0.5605308,-0.22081442,9.768404,1.9550701,-6.951797,-11.262502,0
170906601,0.8640142,0.006975272,-0.0294603,0.50255716,0.62167764,-0.13647723,9.948829,4.314163,-7.758452,-12.479342,0
170939935,0.86581826,0.00943741,-0.030831229,0.49931937,0.5328243,-0.2028979,9.849477,4.4670095,-8.519015,-13.469912,0
170973269,0.8678302,0.011077193,-0.032415,0.49567956,0.6044504,-0.18278225,9.951077,1.6531557,-7.7369866,-14.492099,0
171006603,0.86982435,0.012572051,-0.034292623,0.4920088,0.46155396,-0.2631106,9.875123,0.69820184,-8.370155,-14.695359,0
171039937,0.87180144,0.013878321,-0.036377795,0.4883104,0.57806104,-0.123596326,9.798098,-0.22294025,-8.67703,-14.750844,0
171073271,0.87375194,0.014780498,-0.03849236,0.4846217,0.6952363,-0.09493804,9.721439,-1.4642838,-8.091506,-14.492081,0
171106605,0.8756933,0.015313299,-0.04086569,0.4808924,0.70111865,-0.03877685,9.823918,-3.0312688,-8.2573185,-14.698004,0
171139939,0.87766266,0.015874209,-0.043354213,0.47705087,0.79661345,0.019701313,9.627336,-3.145093,-8.653851,-15.000692,0
171173273,0.8795976,0.016250746,-0.045379132,0.47327116,0.9375745,0.008248266,9.504402,-2.9357712,-6.9548864,-14.787287,0
171206607,0.88150793,0.016385993,-0.047253445,0.4695137,0.96385765,0.06539353,9.562105,-3.4202044,-6.109292,-14.67188,0
171239941,0.8834715,0.017242009,-0.04887485,0.46561012,0.9167552,0.026549565,9.3981285,-0.8555892,-6.5062594,-15.327032,0
171273275,0.88533974,0.017933108,-0.05001535,0.46189955,0.94349164,0.019539656,9.465735,-0.5527879,-4.7869844,-14.607132,0
171306609,0.8872111,0.018333977,-0.05107281,0.45816222,0.91563505,-0.007218398,9.514925,-1.309556,-4.075551,-14.642739,0
171339943,0.88896227,0.01885767,-0.051922992,0.4546376,0.98766005,0.072487995,9.572694,-0.56558126,-3.645716,-13.845919,0
171373277,0.8905845,0.01902222,-0.052946955,0.4513255,1.0574362,0.06253028,9.590032,-1.8910995,-3.6254418,-12.926769,0
171406611,0.89219755,0.01877101,-0.053993113,0.44801402,1.0481557,0.0191551,9.519197,-3.1999116,-3.0503905,-12.83859,0
171439945,0.89380246,0.01861645,-0.054973636,0.44469005,1.0598028,0.040765144,9.458019,-2.8062625,-3.0007467,-12.892908,0
171473279,0.89532405,0.01925062,-0.05516323,0.44156754,1.1765865,0.08124348,9.426767,0.8671294,-1.7795551,-12.353904,0
171506613,0.89684284,0.019402102,-0.055055905,0.4384815,1.1150987,0.07924528,9.523176,-0.16314043,-0.13115649,-12.172934,0
171539947,0.898396,0.019796623,-0.054733727,0.4353133,1.1297418,0.07043409,9.5788355,0.8902578,0.16519268,-12.545167,0
171573281,0.8998477,0.02045237,-0.054440934,0.43231082,1.0683911,0.086937785,9.702453,1.6890358,-0.32516664,-11.935451,0
171606615,0.9013394,0.02087099,-0.0545111,0.42916316,0.9819734,-0.13927777,9.492886,0.38493088,-1.0997028,-12.378553,0
171639949,0.9029779,0.020618837,-0.054125674,0.42576614,1.0763236,-0.022478634,9.525054,-1.0770167,1.3098271,-13.271951,0
171673283,0.9045416,0.020278104,-0.05370546,0.42250445,1.154665,0.11675004,9.656866,-1.2710204,1.5424997,-12.73093,0
171706617,0.90601015,0.020355321,-0.052952092,0.41943815,1.1701205,0.15633245,9.5815525,0.5533987,1.9672164,-12.092057,0
171739951,0.90732414,0.020996923,-0.05191444,0.41668648,1.072244,0.16900092,9.747558,2.7869968,2.032253,-11.022164,0
171773285,0.9086165,0.021359876,-0.05123236,0.41392702,1.0160023,0.21703967,9.908685,1.4068793,1.3164918,-10.945332,0
171806619,0.9098589,0.022547781,-0.050412502,0.41122726,1.0815463,0.21507166,9.659078,4.191229,0.56676215,-10.855522,0
171839953,0.91102636,0.023759898,-0.049367007,0.4086929,1.1146089,0.24062714,9.624874,4.618378,1.2369003,-10.261138,0
171873287,0.912141,0.024609728,-0.048629407,0.40623784,1.0462624,0.31079972,9.700644,3.067026,0.7780797,-9.858387,0
171906621,0.9132504,0.0258125,-0.047406696,0.40380746,0.9482265,0.18419413,9.539534,4.853855,1.8058428,-9.881339,0
171939955,0.91444975,0.02649175,-0.04629795,0.40116975,0.9534132,0.2394474,9.658597,3.0101788,2.1689734,-10.565684,0
171973289,0.9156573,0.026708774,-0.045343634,0.39850134,0.93397593,0.27674228,9.654025,1.3377694,2.3177772,-10.5910225,0
172006623,0.9168377,0.0269029,-0.044042896,0.39591146,0.98569876,0.23578362,9.529387,1.7548156,3.4411712,-10.33886,0
172039957,0.9179434,0.026857834,-0.04287848,0.3934725,0.9383742,0.2760766,9.653274,0.84547967,3.3388925,-9.715847,0
172073291,0.9189558,0.02768985,-0.041558716,0.39118683,0.9013771,0.30680755,9.425138,3.8542464,2.6417332,-9.252627,0
172106625,0.9199807,0.028071221,-0.039623104,0.38894516,0.9082975,0.3252752,9.580518,3.2641227,5.197763,-9.129296,0
172139959,0.9209854,0.027971527,-0.038193226,0.38671103,0.8701797,0.5078936,9.78393,1.0693476,4.238328,-8.968331,0
172173293,0.9219033,0.02806929,-0.03658488,0.38466656,0.84197503,0.47840858,9.686118,1.9629439,4.5461226,-8.307803,0
172206627,0.9227896,0.028108837,-0.034897193,0.38269067,0.7855233,0.44457695,9.763589,1.8942567,4.8757834,-8.056644,0
172239961,0.92360663,0.028954646,-0.03308158,0.38081312,0.7690434,0.50399613,9.7223215,4.6381817,4.2203164,-7.7693486,0
172273295,0.9244115,0.030339282,-0.0310032,0.37892306,0.7362987,0.4497641,9.628529,6.6918254,4.344174,-7.8896275,0
172306629,0.92520624,0.031139083,-0.028875077,0.37708175,0.74115825,0.5001558,9.612061,4.904708,5.2660275,-7.6684847,0
172339963,0.92599744,0.031428758,-0.026773607,0.37526634,0.69212717,0.48607165,9.611939,3.251162,5.8433886,-7.5325513,0
172373297,0.9267735,0.03152266,-0.024938006,0.37346473,0.6027829,0.53033406,9.643068,2.288968,5.2483907,-7.424555,0
172406631,0.92747223,0.031608593,-0.02278914,0.37185684,0.6402598,0.6491323,9.581126,2.690928,6.269308,-6.7479625,0
172439965,0.9280797,0.031956915,-0.02020021,0.3704584,0.54390687,0.55098355,9.536236,4.1162834,7.3509674,-6.039996,0
172473299,0.928724,0.032453436,-0.017586213,0.36893064,0.529482,0.62883353,9.536166,4.6093364,7.228777,-6.515882,0
172506633,0.9293081,0.03245986,-0.014925277,0.36757386,0.5068628,0.7034441,9.489747,3.1218312,8.0140705,-5.8746853,0
172539967,0.9298311,0.032856684,-0.0119080385,0.3663243,0.42471644,0.6589141,9.433289,4.8322835,8.666229,-5.5215254,0
172573301,0.9303672,0.033305105,-0.0085135335,0.36501503,0.47019106,0.71925485,9.410036,5.469973,9.7992525,-5.7776494,0
172606635,0.9308161,0.03298181,-0.0047537545,0.36396646,0.38373515,0.7947184,9.644472,3.479145,11.962085,-4.8597913,0
172639969,0.93120784,0.032038543,-0.0015812016,0.36307523,0.2527615,0.773259,9.741078,0.7712158,10.874638,-4.2149105,0
172673303,0.9314738,0.0310423,0.0018284989,0.36247832,0.1378344,0.74817115,9.81217,0.9150316,11.730696,-3.1489599,0
172706637,0.9317453,0.030939812,0.0050381534,0.361758,0.053282708,0.7766048,9.972588,3.5300927,9.961593,-3.5275404,0
172739971,0.93196774,0.030748371,0.00796464,0.3611482,0.1519076,0.8162484,9.872121,2.8979754,9.176201,-3.0894914,0
172773305,0.9321506,0.030857673,0.011078414,0.36058417,-0.06475921,0.685552,9.646072,4.0989757,9.407857,-2.9084802,0
172806639,0.9323513,0.031244716,0.0145850135,0.35990685,0.06975864,0.8501987,9.766006,5.4811187,10.307913,-3.3260143,0
172839973,0.93245625,0.0304007,0.017653575,0.35956958,-0.061843276,0.8306403,9.989259,0.98865503,10.468155,-2.1357377,0
172873307,0.9326056,0.029651396,0.020192107,0.3591105,-0.3005256,0.67745787,9.8131075,0.6425625,8.636109,-2.5205803,0
172906641,0.93278956,0.029251354,0.023186956,0.35848436,-0.18957438,0.7515663,9.921416,2.336858,9.647598,-3.1192026,0
172939975,0.93297684,0.028901115,0.025453072,0.35787112,-0.3161666,0.7254771,9.898883,1.5998824,7.2501826,-3.0034754,0
172973309,0.9331745,0.028785845,0.02786899,0.35718453,-0.30903256,0.7377985,9.665398,2.5457542,7.432707,-3.2437556,0
173006643,0.9333408,0.028504848,0.03054225,0.3565531,-0.33257362,0.8210935,9.779212,2.3303518,8.469979,-3.0662858,0
173039977,0.93349326,0.028159654,0.03312068,0.35595113,-0.4218631,0.80747986,9.637773,2.0087454,8.248166,-2.954076,0
173073311,0.9336281,0.027592417,0.035906013,0.35537136,-0.43922794,0.8112175,9.736501,1.5509824,9.187566,-2.905944,0
173106645,0.93375206,0.027028034,0.03849012,0.35481805,-0.5231214,0.8321706,9.746328,1.3146276,8.541796,-2.7872987,0
173139979,0.93386877,0.02660772,0.0411751,0.35424086,-0.5444581,0.85485524,9.660362,1.9063201,8.688207,-2.8450427,0
173173313,0.93394566,0.026223795,0.04400804,0.3537258,-0.5998487,0.8868177,9.727548,2.2004764,9.129924,-2.6065502,0
173206647,0.9340212,0.026047692,0.04700149,0.35315368,-0.5913368,0.92934024,9.701607,3.0739608,9.386957,-2.7729695,0
173239981,0.9340253,0.0253833,0.049751922,0.3528143,-0.63954324,0.9799202,9.805015,1.1818514,9.232112,-1.9955072,0
173273315,0.93401706,0.025049802,0.05229083,0.35249257,-0.7736181,0.9399579,9.683827,1.9878262,8.154981,-1.851589,0
173306649,0.93394196,0.024873545,0.055235907,0.35225493,-0.71879566,1.0173923,9.779496,2.9774637,9.287411,-1.508942,0
173339983,0.93380076,0.024452649,0.057938095,0.35222432,-0.8745325,1.0354288,9.811523,1.8661149,8.833956,-0.793047,0
173373317,0.9336353,0.02450468,0.06053782,0.35222214,-0.9059394,1.0039036,9.644455,3.258281,7.9388075,-0.5725661,0
173406651,0.9334275,0.024282992,0.06332331,0.35229844,-0.92863685,0.998594,9.630817,2.593964,8.881229,-0.34467047,0
173439985,0.9332215,0.024127781,0.066066705,0.3523509,-1.0030073,1.0938768,9.573809,2.7632837,8.6626625,-0.4064612,0
173473319,0.9329134,0.022893976,0.068680935,0.35274917,-0.96401507,1.1354259,9.67118,-0.9217126,9.606327,0.5862403,0
173506653,0.9325717,0.020700715,0.070918195,0.35334527,-1.1958523,1.0421054,9.657245,-4.4980454,9.5852375,1.0608188,0
173539987,0.9322076,0.018806187,0.07334035,0.35391682,-1.2325033,1.0123429,9.620849,-3.3057277,9.819165,1.0645584,0
173573321,0.9317834,0.017199049,0.075790174,0.35459876,-1.2898481,1.0160413,9.594906,-2.3726869,9.580594,1.5575584,0
173606655,0.93132615,0.01591441,0.07845069,0.35528082,-1.2775466,0.9277969,9.345157,-1.0783026,9.870884,1.6658813,0
173639989,0.9307702,0.014952831,0.08165043,0.35605782,-1.273407,1.0599252,9.337094,0.59681225,11.234587,2.1466074,0
173673323,0.9301557,0.01351335,0.08485345,0.35697135,-1.3532131,1.0813509,9.599551,-0.9611505,11.853539,2.51474,0
173706657,0.92948985,0.012262359,0.0882135,0.3579351,-1.4615571,1.0392827,9.409019,-0.17512082,12.141749,2.7807353,0
173739991,0.9287394,0.010887214,0.09188323,0.35900235,-1.6001524,1.0092285,9.65727,-0.2154482,13.313571,3.1600296,0
173773325,0.9279689,0.0096060075,0.09524453,0.360154,-1.6237864,1.0287956,9.814346,-0.31868678,12.222272,3.492732,0
173806659,0.9271837,0.0076327706,0.09825915,0.3614109,-1.7437439,1.0294971,9.839392,-2.9866395,11.982182,3.6287801,0
173839993,0.9263557,0.0063267243,0.10090965,0.36282608,-1.8770498,0.9249052,9.83941,-1.3621049,10.011737,4.4217486,0
173873327,0.92557114,0.0054938323,0.10309247,0.36422575,-1.9398435,0.90231293,9.803609,-0.43144,7.916782,4.4898314,0
173906661,0.92477995,0.0050618784,0.105419435,0.3655734,-2.0129166,0.8695641,9.775264,1.0454572,7.87424,4.4730997,0
173939995,0.9240186,0.004341716,0.10735944,0.36694044,-2.06589,0.91911757,9.934065,-0.3623688,6.9951777,4.4013,0
173973329,0.9232762,0.0029918586,0.10860574,0.36845306,-2.0806055,0.8972517,9.699912,-3.289832,5.581195,4.6184697,0
174006663,0.9224913,0.0013167572,0.11003852,0.3700002,-1.9375563,0.8951354,9.556566,-4.0968013,6.601806,4.658658,0
174039997,0.92167896,-0.00055790733,0.111365624,0.37162608,-1.9889598,0.9180619,9.693429,-4.892499,6.5332546,4.871552,0
174073331,0.92090636,-0.0013988487,0.1127754,0.37311137,-2.1919909,0.9428823,9.613743,-1.4560767,5.4603724,4.7698216,0
174106665,0.9201639,-0.0014212062,0.11407726,0.3745445,-2.0751824,1.1074913,9.688009,1.0189922,4.056282,4.8762736,0
174139999,0.919289,-0.002051963,0.11506363,0.3763835,-2.1438925,1.0990365,9.565869,-1.4706886,3.891113,6.083376,0
174173333,0.9183337,-0.0032186704,0.115900494,0.3784454,-2.2641351,0.9433216,9.379287,-3.4452574,4.141683,6.6706257,0
174206667,0.9172856,-0.0049615963,0.11692881,0.38064542,-2.195406,0.9745586,9.404268,-5.0696316,5.5307603,6.994484,0
174240001,0.9160345,-0.00709156,0.11842979,0.38315216,-2.1842568,1.045946,9.42481,-5.7963467,7.6044955,8.072389,0
174273335,0.9146925,-0.008915456,0.119973905,0.38583046,-2.1895628,0.9769771,9.27981,-4.8451138,7.370349,8.847603,0
174306669,0.9131922,-0.011326499,0.12147249,0.38884038,-2.281998,0.94263995,9.321633,-6.8912835,8.06211,9.851273,0
174340003,0.91172695,-0.013394642,0.122877225,0.39176103,-2.4074092,0.8807542,9.342069,-5.89887,7.298444,9.656227,0
174373337,0.9101537,-0.015206159,0.12494157,0.394689,-2.36908,0.8619079,9.456214,-4.2118917,9.065656,9.958561,0
174406671,0.90860766,-0.016891222,0.12635972,0.39771944,-2.3738358,0.8628798,9.60075,-4.7332325,6.856078,10.25997,0
174440005,0.9069268,-0.019184086,0.12794232,0.400933,-2.413797,0.81929386,9.4905815,-6.491898,8.250194,10.757876,0
174473339,0.90516144,-0.021414706,0.12941448,0.40432274,-2.5968704,0.7705124,9.678137,-6.5309844,7.847196,11.442476,0
174506673,0.903462,-0.02225116,0.13068587,0.4076559,-2.5919616,0.76200867,9.636029,-2.4399164,5.259923,11.778569,0
174540007,0.90162456,-0.023657443,0.13161324,0.4113298,-2.5284412,0.84264064,9.717917,-4.8540316,5.0265555,12.746553,0
174573341,0.8997488,-0.025451574,0.13220328,0.41512343,-2.5883653,0.88024163,9.834227,-6.5894065,4.538658,12.965821,0
174606675,0.89785963,-0.026388248,0.13278192,0.41895255,-2.5069149,0.82901895,9.637152,-3.969814,3.284061,13.479062,0
174640009,0.89593345,-0.027130125,0.1328152,0.42299902,-2.5305045,0.7748703,9.650082,-4.2563763,1.3187988,14.2401,0
174673343,0.8939037,-0.02751549,0.13224144,0.4274249,-2.6527915,0.66972864,9.574744,-3.844196,-1.1862367,14.032445,0
174706677,0.8915465,-0.027434876,0.13200077,0.4323989,-2.5592353,0.66556513,9.435287,-1.5814155,-0.9666323,13.741958,0
174740011,0.88910586,-0.027762588,0.13205497,0.43735808,-2.58448,0.68076897,9.346131,-2.3706088,0.57044435,13.537639,0
174773345,0.8865965,-0.028292213,0.13272347,0.44218934,-2.4877813,0.754801,9.306464,-2.0365672,2.801707,13.327336,0
174806679,0.88402516,-0.028936923,0.13330978,0.4470921,-2.4976914,0.81265485,9.238208,-2.78507,2.8299143,14.604866,0
174840013,0.88180375,-0.029552741,0.13426591,0.45113438,-2.6516545,0.7325449,9.231629,-2.5083241,4.1206975,14.984436,0
174873347,0.87965876,-0.030340457,0.13481742,0.45508793,-2.7244215,0.6900441,9.426521,-3.607394,3.134028,14.475401,0
174906681,0.87761223,-0.03081727,0.13520053,0.45887777,-2.6487098,0.7198469,9.322367,-2.844087,2.1097274,13.954808,0
174940015,0.87540036,-0.031815708,0.13601223,0.46277797,-2.5598764,0.7054852,9.317924,-3.8097801,4.2909584,14.35111,0
174973349,0.8730864,-0.033414107,0.13665408,0.46683002,-2.6326067,0.718118,9.406604,-5.9669237,4.7668395,14.673825,0
175006683,0.8706766,-0.035195295,0.13711053,0.47104695,-2.8080978,0.650872,9.470547,-6.900859,4.5308895,15.217608,0
175040017,0.86827064,-0.036382068,0.13752322,0.47525868,-2.7703395,0.7360498,9.4984045,-5.1885905,3.4364793,15.470641,0
175073351,0.8659196,-0.037003092,0.13769202,0.47943315,-2.7074232,0.7822711,9.419538,-3.8738708,1.7633414,15.50787,0
175106685,0.8634852,-0.03794726,0.13820973,0.48358324,-2.7423265,0.798211,9.4242,-4.258799,3.3772743,15.460591,0
175140019,0.8610645,-0.038827468,0.13862625,0.48769268,-2.7707436,0.77244854,9.520847,-4.2158403,2.9697685,15.33366,0
175173353,0.85872984,-0.039457195,0.13888794,0.49166852,-2.771008,0.743103,9.420789,-3.6581845,2.0686452,14.892133,0
175206687,0.856229,-0.040332895,0.1393116,0.49582118,-2.729158,0.7946525,9.434967,-4.2172747,3.0183177,15.598726,0
175240021,0.8536748,-0.0410577,0.13948031,0.50009996,-2.8026986,0.77496207,9.400113,-4.2750196,2.0191054,16.096214,0
175273355,0.85102075,-0.041913874,0.13984202,0.5044325,-2.8386228,0.80854875,9.353324,-4.3679442,2.8518548,16.388205,0
175306689,0.84813756,-0.044024922,0.14000334,0.50904274,-2.8077304,0.8367999,9.450864,-8.552376,4.5121336,16.96309,0
175340023,0.845295,-0.046159968,0.13944615,0.5137133,-2.8367767,0.6994922,9.331465,-9.90182,2.4318266,16.946096,0
175373357,0.8424856,-0.048002746,0.13926993,0.51818776,-2.807103,0.60331297,9.243771,-8.28023,3.0391254,16.51988,0
175406691,0.8396197,-0.049349964,0.1398274,0.52254426,-2.7887514,0.64971536,9.392422,-5.49021,4.328813,16.638737,0
175440025,0.83684886,-0.05045315,0.13999538,0.52682126,-2.8699865,0.5531824,9.434409,-5.430555,2.7349706,16.292303,0
175473359,0.834095,-0.051926713,0.14014022,0.5309903,-2.893384,0.5363467,9.37101,-6.4829407,3.350421,15.773632,0
175506693,0.831344,-0.05299942,0.1404288,0.5351064,-2.9129696,0.64321035,9.521204,-5.0448256,3.0397115,15.839113,0
175540027,0.82852393,-0.054157335,0.14024633,0.5393949,-2.8804598,0.6657741,9.51691,-6.250223,1.8528273,16.332998,0
175573361,0.8256077,-0.055582445,0.13986564,0.5438023,-2.9895434,0.6267276,9.459394,-7.4539776,1.8089534,16.686172,0
175606695,0.8226108,-0.05607182,0.13965993,0.5483281,-2.9585795,0.7212497,9.550753,-4.543029,0.57281464,17.656328,0
175640029,0.8195865,-0.05585854,0.13936727,0.5529334,-2.8652382,0.78822213,9.571078,-2.7632773,-0.99955946,18.25054,0
175673363,0.81660306,-0.05609686,0.1390401,0.5573878,-2.8522007,0.7850619,9.517381,-4.0210834,-0.22871602,17.522087,0
175706697,0.8135563,-0.056734394,0.13827926,0.5619493,-2.8428428,0.8244312,9.61945,-6.0358987,-0.6708447,17.66445,0
175740031,0.81050044,-0.056688868,0.1372744,0.5665971,-2.8963072,0.6835639,9.533827,-4.6397696,-2.6846533,18.196144,0
175773365,0.80743295,-0.056675896,0.13656072,0.57113194,-2.8821502,0.6553966,9.561742,-4.1126313,-1.7822104,17.94649,0
175806699,0.8044271,-0.055792544,0.13579622,0.57562554,-2.7692397,0.67240727,9.594863,-1.7658633,-3.6527472,18.111248,0
175840033,0.80145395,-0.055118017,0.13485764,0.5800414,-2.7306721,0.65177315,9.601672,-2.646144,-3.7204669,17.703016,0
175873367,0.79843414,-0.05447338,0.13354245,0.5845536,-2.8641608,0.6602939,9.700007,-3.5339618,-4.694351,17.979134,0
175906701,0.7954967,-0.053089805,0.13219793,0.58897465,-2.8422856,0.6132647,9.64875,-1.5087687,-6.280785,17.901663,0
175940035,0.7926127,-0.052219305,0.13021177,0.59336686,-2.7357247,0.6082825,9.731689,-4.189773,-7.0153546,17.3695,0
175973369,0.78978074,-0.051971685,0.12761314,0.5977132,-2.7239716,0.57836735,9.660781,-7.1083117,-7.4275,16.756786,0
176006703,0.7871151,-0.05153948,0.124889575,0.601828,-2.6249096,0.5346302,9.507985,-6.733933,-8.176703,15.850491,0
176040037,0.7846465,-0.050237667,0.122457094,0.60564935,-2.588033,0.43911788,9.361332,-3.619783,-9.220025,15.08352,0
176073371,0.7823861,-0.048595484,0.12039668,0.60911083,-2.5181344,0.42076308,9.255902,-1.7414784,-8.950291,13.897437,0
176106705,0.7803443,-0.04725886,0.11870289,0.6121601,-2.432432,0.47572944,9.363468,-1.5901242,-7.3460503,12.277005,0
176140039,0.77829665,-0.04665348,0.11678734,0.6151743,-2.3245173,0.5819916,9.481012,-4.006298,-6.393389,11.868275,0
176173373,0.77628076,-0.046651285,0.114355616,0.61817116,-2.3828087,0.4501548,9.60978,-6.700802,-6.507817,11.436512,0
176206707,0.7745474,-0.045828715,0.11212463,0.62081,-2.4046586,0.49219978,9.687802,-3.9001389,-7.7681646,10.246709,0
176240041,0.77298343,-0.044379704,0.11005093,0.623231,-2.3115318,0.5526765,9.769584,-1.7870533,-8.716938,9.580046,0
176273375,0.7714817,-0.042897146,0.107743196,0.6255941,-2.2870755,0.46018153,9.742951,-2.16919,-9.424947,9.277037,0
176306709,0.7701805,-0.04173172,0.104984686,0.62774163,-2.2328405,0.4429061,9.681694,-3.871785,-9.98057,8.101876,0
176340043,0.76905036,-0.040334918,0.10237696,0.62964636,-2.1174853,0.57838666,9.85879,-2.822609,-10.107076,7.202612,0
176373377,0.7680197,-0.038427472,0.09903409,0.6315554,-1.9608068,0.6841376,9.877933,-3.0529857,-13.190838,7.0810213,0
176406711,0.76695156,-0.037128873,0.095450275,0.63348025,-1.8705971,0.68844324,9.858534,-5.195053,-12.493549,6.963164,0
176440045,0.7659636,-0.03601355,0.09149512,0.63532084,-1.877329,0.6639175,10.009378,-6.450761,-13.087981,6.4596133,0
176473379,0.7651334,-0.03419938,0.08759076,0.63696957,-1.7591815,0.7064734,9.996822,-4.421191,-14.505545,5.8355393,0
176506713,0.7642348,-0.03207792,0.083640195,0.63868743,-1.7406397,0.6421635,9.889271,-3.7446876,-15.286777,6.2509036,0
176540047,0.7633343,-0.029708166,0.079383425,0.64041984,-1.6315407,0.52061486,9.865831,-3.771219,-16.637129,6.332729,0
176573381,0.76263094,-0.026822032,0.075148635,0.6418943,-1.5411531,0.4631462,9.787098,-2.2788625,-17.743341,5.3678427,0
176606715,0.76194173,-0.02405526,0.07111047,0.6432809,-1.4619316,0.50505894,9.926683,-2.1357307,-16.959747,5.0991426,0
176640049,0.7613982,-0.021525495,0.06596824,0.64456075,-1.3454975,0.42026308,9.984564,-5.1616235,-19.354017,4.3518248,0
176673383,0.76080495,-0.019033581,0.060733594,0.6458528,-1.1995196,0.4044162,9.746243,-5.473589,-19.501013,4.483924,0
176706717,0.7601455,-0.016552638,0.055309422,0.6471839,-1.177615,0.35957375,9.792801,-5.9370875,-19.960443,4.7224836,0
176740051,0.7597634,-0.013878951,0.050265156,0.6481058,-1.0425326,0.2374152,9.634983,-4.4960217,-19.425827,3.104101,0
176773385,0.7593998,-0.0113322,0.045355786,0.64894325,-0.7669742,0.3079611,9.6693735,-4.5125265,-18.789318,2.8333907,0
176806719,0.7591555,-0.008648637,0.040534843,0.64958906,-0.6994095,0.27460712,9.694074,-3.9245653,-18.873966,2.097496,0
176840053,0.75896555,-0.00578156,0.035863757,0.65011734,-0.5957353,0.27719575,9.651316,-3.094056,-18.896013,1.7038392,0
176873387,0.7590548,-0.0032328472,0.031298134,0.6502667,-0.49724442,0.15015657,9.64888,-3.6374302,-17.935558,0.06062875,0
176906721,0.7593109,-0.0003712934,0.026720822,0.65018,-0.4322603,0.229901,9.666681,-2.8202348,-18.680223,-0.8873116,0
176940055,0.7594882,0.0027306376,0.022810468,0.65011597,-0.37258616,0.23267417,9.708305,-0.7050246,-17.469135,-0.625324,0
176973389,0.7598831,0.0057468372,0.018662313,0.64976716,-0.40163183,0.04964039,9.648337,-1.4401126,-17.91844,-1.8508974,0
177006723,0.7604684,0.008460663,0.014730178,0.64915323,-0.24469313,0.10273788,9.530223,-1.7333658,-16.696814,-2.9808564,0
177040057,0.76103336,0.010325888,0.010674815,0.6485433,-0.07429757,0.21425445,9.90019,-4.2260466,-15.124238,-2.9561067,0
177073391,0.7618341,0.012403107,0.0059718825,0.6476267,-0.026918307,0.015019965,9.85371,-5.112064,-17.310555,-4.247221,0
177106725,0.76269954,0.015092698,0.0016443233,0.64657557,0.22470486,0.0669579,9.739883,-2.6712832,-17.697609,-4.734992,0
177140059,0.7634047,0.017984409,-0.002419167,0.6456663,0.2735499,0.13897279,9.893836,-1.5465018,-17.445515,-4.015257,0
177173393,0.7643472,0.021347033,-0.0061456864,0.6444229,0.18681377,0.02828522,9.740044,0.4203672,-17.625284,-5.4367757,0
177206727,0.7655665,0.024410788,-0.0098716,0.6428186,0.23888364,0.080923826,9.723328,-0.39020494,-16.98299,-6.9828224,0
177240061,0.766794,0.026718654,-0.0143696545,0.6411768,0.48735157,0.24954826,9.724801,-4.0873017,-17.348331,-7.0027785,0
177273395,0.7680372,0.028202567,-0.019307828,0.6394932,0.49827152,0.075946,9.514878,-7.2331414,-16.695591,-7.065876,0
177306729,0.7693983,0.03026848,-0.023576377,0.63761693,0.55518085,-0.022011958,9.391311,-4.2475863,-16.218342,-7.92934,0
177340063,0.77091867,0.03259911,-0.027186144,0.6355185,0.72019696,0.018389594,9.42798,-2.1362174,-15.06673,-8.947336,0
177373397,0.7725121,0.03459765,-0.030957876,0.6333013,0.86445034,0.058052134,9.410466,-3.388646,-14.77707,-9.368624,0
177406731,0.77419263,0.036160406,-0.03422294,0.63098973,1.0771687,0.08383086,9.300328,-3.4626834,-12.484298,-9.820239,0
177440065,0.77590257,0.03681757,-0.037472352,0.62866247,0.9789048,-0.048718676,9.40605,-5.8441844,-10.475802,-9.8194685,0
177473399,0.77790254,0.03774209,-0.04039871,0.625949,0.96802956,-0.2144888,9.183582,-4.5170336,-10.203624,-11.543141,0
177506733,0.78009963,0.039106596,-0.04216481,0.6230075,1.1050485,-0.107766494,9.399664,-0.8975935,-8.04981,-12.777397,0
177540067,0.7824113,0.03996645,-0.04401263,0.61991876,1.1770588,-0.041106373,9.699218,-2.4609718,-7.191108,-13.326906,0
177573401,0.7847463,0.040123973,-0.046360254,0.616778,1.0945534,-0.030879647,9.744547,-5.424802,-7.04225,-13.337253,0
177606735,0.78718674,0.040037807,-0.049080703,0.6134543,1.0921063,-0.061753266,9.690944,-6.9153805,-7.540532,-13.960324,0
177640069,0.78965974,0.040403903,-0.05147651,0.61004585,1.2107844,-0.07909171,9.722429,-5.024118,-7.6224914,-14.373833,0
177673403,0.79229826,0.04075125,-0.054213114,0.6063537,1.2156576,-0.054653615,9.820166,-5.8617377,-8.519011,-15.437059,0
