timestamp,q_w,q_x,q_y,q_z,acc_x,acc_y,acc_z,gyr_x,gyr_y,gyr_z,timestamp_marked
289702217,0.9013993,-0.008351937,-0.0043877233,0.43288603,0.008632754,-0.1916685,9.853619,-0.35859063,0.6323839,0.98960423,0
289718884,0.9014142,-0.008520723,-0.0043374635,0.43285212,0.011905647,-0.18910293,9.860787,-0.31704682,0.69690233,0.9545149,0
289735551,0.90125567,-0.008637635,-0.0043223905,0.43318015,0.012942502,-0.18838559,9.853025,-0.38501012,0.7192495,0.91770947,0
289752218,0.9012477,-0.008711638,-0.0043169972,0.4331953,-0.0008307945,-0.19901755,9.847448,-0.35706666,0.6518369,0.9288382,0
289768885,0.9011809,-0.008817614,-0.0042682295,0.4333325,0.0018060155,-0.18529092,9.834806,-0.2809457,0.71310234,0.95136446,0
289785552,0.90110224,-0.008898959,-0.004211785,0.43349507,0.002272977,-0.18515493,9.845765,-0.3341305,0.6449215,0.883286,0
289802219,0.90104187,-0.008967912,-0.0041504274,0.43361977,0.0014001911,-0.17258681,9.852535,-0.34934437,0.64373034,0.9085913,0
289818886,0.90104026,-0.0090071345,-0.004079141,0.43362293,-0.0075121173,-0.17890541,9.852982,-0.30708346,0.6154796,0.8804301,0
289835553,0.9010323,-0.009051316,-0.003996888,0.43363908,0.004387906,-0.18029523,9.830435,-0.3261393,0.64244974,0.9338838,0
289852220,0.9009686,-0.009094861,-0.0039185155,0.43377125,0.00862985,-0.18304802,9.853349,-0.3208503,0.6777889,1.0658982,0
289868887,0.9009909,-0.009132424,-0.0038504137,0.43372503,0.0041329605,-0.17978716,9.835528,-0.28668293,0.6437687,0.885796,0
289885554,0.9010225,-0.009183631,-0.0037878042,0.43365878,0.0063042194,-0.18061264,9.844689,-0.37767205,0.6656676,0.95223534,0
289902221,0.9010146,-0.009216548,-0.0037184698,0.43367502,0.0114283245,-0.19460738,9.841377,-0.23018132,0.6791911,0.9403254,0
289918888,0.90105176,-0.009263751,-0.0036549787,0.43359742,0.006249912,-0.20955719,9.849515,-0.28094572,0.7080055,0.9323856,0
289935555,0.9010655,-0.009330555,-0.0035977084,0.43356797,0.00902016,-0.1900425,9.844654,-0.34294125,0.73795944,0.8933005,0
289952222,0.90107226,-0.009398134,-0.0035565821,0.43355247,0.003636662,-0.19340804,9.84502,-0.38795555,0.65145254,0.9012916,0
289968889,0.9010685,-0.0094502475,-0.0035067897,0.4335596,-0.0030434397,-0.17880255,9.843786,-0.25439817,0.65662646,0.9197457,0
289985556,0.9010116,-0.009521029,-0.003452578,0.43367678,0.013604202,-0.1909115,9.843575,-0.37389418,0.73328525,0.9263537,0
290002223,0.9009722,-0.009577167,-0.0033846078,0.43375802,0.013968332,-0.20462109,9.850483,-0.23582894,0.7881861,0.9060557,0
290018890,0.90094995,-0.0096298745,-0.0033290633,0.4338036,0.010523782,-0.19100133,9.859013,-0.22806826,0.7102594,0.91441816,0
290035557,0.9009168,-0.009701233,-0.0032913026,0.4338709,0.007555723,-0.17776255,9.855787,-0.3965486,0.65990484,1.0281259,0
290052224,0.9009194,-0.0097680325,-0.0032399942,0.4338645,-0.0038797117,-0.19004384,9.84329,-0.3434407,0.7270997,0.8867053,0
290068891,0.9008902,-0.009828971,-0.0031957023,0.433924,-0.0050041694,-0.18843685,9.856364,-0.32647225,0.65821433,0.92566216,0
290085558,0.9007993,-0.009898781,-0.0031523216,0.4341117,0.0161717,-0.18781538,9.836049,-0.38387036,0.6781539,0.94359094,0
290102225,0.900725,-0.009969486,-0.0031049121,0.43426463,0.014613194,-0.195621,9.845437,-0.3788118,0.7134866,0.92794174,0
290118892,0.9006561,-0.01005679,-0.0030566787,0.43440557,0.0045012394,-0.1826195,9.846775,-0.47412953,0.77517486,0.86945516,0
290135559,0.90059876,-0.010110809,-0.003002785,0.43452355,0.011330807,-0.19912627,9.857927,-0.2575869,0.70521367,0.94844466,0
290152226,0.9005335,-0.010176227,-0.0029589122,0.43465748,0.0024176496,-0.18377727,9.849467,-0.35173923,0.6821495,0.9228064,0
290168893,0.9004413,-0.010238527,-0.0029187803,0.4348473,-0.0022831382,-0.18813846,9.862301,-0.34764117,0.65050495,0.9463445,0
290185560,0.90038496,-0.010306366,-0.002879769,0.4349625,0.0013522691,-0.2075413,9.850837,-0.38763538,0.6505049,0.864038,0
290202227,0.9003301,-0.010366586,-0.0028387038,0.43507493,-0.0035382854,-0.19455156,9.843125,-0.32542214,0.63590574,0.9500199,0
290218894,0.90029943,-0.010433757,-0.0028030768,0.43513718,-0.002833972,-0.18081859,9.838203,-0.38439542,0.61512107,0.911588,0
290235561,0.9002494,-0.0105010625,-0.0027573432,0.4352395,-0.008985627,-0.18119034,9.839034,-0.36055,0.67687327,0.9530038,0
290252228,0.90019673,-0.010570064,-0.002704686,0.43534687,8.867076e-05,-0.19053559,9.847958,-0.35520977,0.7198001,0.9377771,0
290268895,0.90019786,-0.01062249,-0.002662179,0.43534362,0.007911864,-0.19467863,9.834523,-0.28542796,0.59711534,0.95072424,0
290285562,0.90017086,-0.010688462,-0.0026187925,0.43539783,0.00091659167,-0.18446107,9.839378,-0.36471203,0.6493652,0.99532866,0
290302229,0.9001543,-0.010759005,-0.0025817663,0.4354306,0.018763212,-0.19825305,9.85346,-0.41524586,0.6221516,0.96086675,0
290318896,0.9001303,-0.010819698,-0.0025378335,0.435479,0.00959908,-0.17587164,9.851217,-0.33118498,0.6429107,0.95715296,0
290335563,0.9001198,-0.01087561,-0.0024859114,0.43549967,-0.007544153,-0.1867839,9.840162,-0.28387836,0.67921674,0.90235454,0
290352230,0.90011334,-0.010940391,-0.0024276357,0.4355118,0.01165813,-0.18878219,9.852666,-0.32172114,0.7403671,0.92763436,0
290368897,0.90010375,-0.011005127,-0.0023785478,0.43553045,0.005153491,-0.17870454,9.837677,-0.3498951,0.6866317,0.94152933,0
290385564,0.9000971,-0.011063613,-0.0023389817,0.43554285,0.0031189523,-0.18500656,9.843777,-0.34363276,0.6096655,0.927852,0
290402231,0.9000765,-0.011119198,-0.0022960214,0.43558443,0.010028326,-0.18217924,9.857782,-0.31653455,0.62521243,0.9100256,0
290418898,0.9000503,-0.0111754695,-0.0022505568,0.4356373,-0.0005843423,-0.19558664,9.848937,-0.31548437,0.64606106,0.910794,0
290435565,0.9000268,-0.011232782,-0.0022020708,0.43568453,0.010837841,-0.19761522,9.84465,-0.31151444,0.6677423,0.8721444,0
290452232,0.90000826,-0.011302688,-0.002159656,0.43572116,-0.0010991713,-0.18488443,9.841823,-0.4067809,0.66776794,0.950071,0
290468899,0.8999978,-0.011366825,-0.0021067788,0.43574125,-4.5164372e-05,-0.1805438,9.854971,-0.3416478,0.71398604,0.92158985,0
290485566,0.8999792,-0.011428896,-0.0020645102,0.43577817,0.0029442217,-0.18848686,9.851014,-0.3624581,0.6454464,0.8377722,0
290502233,0.8999729,-0.011486442,-0.002014729,0.43578976,0.00037152343,-0.18225189,9.849596,-0.3136659,0.67606646,0.8844641,0
290518900,0.8999446,-0.011538211,-0.0019605183,0.43584716,0.0092182625,-0.18971765,9.849874,-0.26587263,0.68970513,0.92084694,0
290535567,0.899907,-0.011590581,-0.0019060922,0.43592373,0.0101641845,-0.18413824,9.847417,-0.26902297,0.6964669,0.9392753,0
290552234,0.89987105,-0.011641281,-0.0018640469,0.43599677,-0.0004092059,-0.19311841,9.8573885,-0.29733783,0.6173109,0.92896616,0
290568901,0.89984703,-0.011704967,-0.0018058375,0.43604487,-0.003596101,-0.18809208,9.859463,-0.32982752,0.75430036,0.94558877,0
290585568,0.8998305,-0.0117659485,-0.0017588054,0.43607748,0.0029096843,-0.18649094,9.848727,-0.3478461,0.6758999,0.93844295,0
290602235,0.89980507,-0.011838255,-0.0017069135,0.4361283,0.0041438662,-0.19325736,9.852277,-0.4037714,0.74374807,0.9041732,0
290618902,0.89978504,-0.01190812,-0.0016623309,0.43616784,0.015717337,-0.18748693,9.854377,-0.41121188,0.6910115,0.9451663,0
290635569,0.89976984,-0.01195754,-0.0016075579,0.43619803,-0.009599804,-0.19641542,9.859612,-0.25523055,0.69676137,0.89838463,0
290652236,0.89975506,-0.012008484,-0.0015616162,0.43622738,-0.014501422,-0.18546271,9.843873,-0.29131883,0.64503664,0.9514157,0
290668903,0.8997359,-0.012064102,-0.001520699,0.43626535,-0.001290047,-0.1816754,9.838405,-0.33591056,0.6297715,0.86679137,0
290685570,0.89971995,-0.012126809,-0.0014666996,0.43629667,-0.0017955406,-0.1902924,9.842454,-0.34321022,0.7315179,0.92223006,0
290702237,0.8997,-0.012185131,-0.0014291167,0.43633652,0.007029844,-0.19665143,9.855528,-0.36583897,0.6188732,0.92484254,0
290718904,0.89968145,-0.012262571,-0.0013798041,0.4363728,-0.009953143,-0.18963015,9.850069,-0.44886258,0.7516751,0.9102689,0
290735571,0.8996402,-0.012310457,-0.0013356924,0.43645656,-0.010171135,-0.18641312,9.842046,-0.2807536,0.6366869,0.85955584,0
290752238,0.89960605,-0.0123550305,-0.0012946855,0.43652582,0.011424985,-0.18005164,9.838422,-0.27236542,0.6045686,0.9609692,0
290768905,0.89958036,-0.012410976,-0.0012489633,0.43657726,0.0023975591,-0.19203337,9.855811,-0.33108255,0.67103356,0.91737646,0
290785572,0.8995429,-0.012464311,-0.0012044406,0.4366529,0.01192701,-0.19129074,9.843409,-0.3179048,0.66208184,0.8484655,0
290802239,0.8994965,-0.012510408,-0.0011568685,0.43674728,0.009960286,-0.18071672,9.846687,-0.26480973,0.663132,0.9172868,0
290818906,0.89945954,-0.012570634,-0.0011157853,0.4368218,0.0064274278,-0.18995908,9.848909,-0.37523887,0.6654756,0.991013,0
290835573,0.8994221,-0.012617533,-0.0010715186,0.43689755,0.013507282,-0.17967948,9.834632,-0.28432658,0.6483151,0.99450916,0
290852240,0.89937687,-0.012671642,-0.0010257309,0.43698928,-0.008545265,-0.18536557,9.836911,-0.3261137,0.68489003,0.9947396,0
290868907,0.8993356,-0.012726678,-0.0009936888,0.43707272,0.006521753,-0.18118916,9.845075,-0.37416312,0.6056827,0.897565,0
290885574,0.899285,-0.012771556,-0.00094649673,0.43717578,-0.0059179235,-0.19126625,9.845745,-0.267768,0.6728008,0.94843197,0
290902241,0.89925855,-0.012822289,-0.0008973509,0.43722853,0.009882627,-0.17926334,9.841938,-0.30147424,0.6986697,1.0016038,0
290918908,0.89922756,-0.012864226,-0.00085973355,0.4372913,0.00096127106,-0.20017819,9.849163,-0.2834173,0.6065792,0.9648752,0
290935575,0.89924914,-0.012926985,-0.0008189437,0.43724522,0.008729021,-0.17930345,9.848308,-0.40610212,0.6837758,0.8815569,0
290952242,0.899193,-0.012982639,-0.00078515976,0.43735904,-2.2794062e-05,-0.17951478,9.846873,-0.3804254,0.63584167,0.95463,0
290968909,0.89918303,-0.013034298,-0.0007476347,0.437378,0.0035845032,-0.19094096,9.850703,-0.35003597,0.64252657,0.9003568,0
290985576,0.8991636,-0.01307672,-0.00069926225,0.4374168,0.0016565024,-0.2007348,9.841779,-0.26095498,0.6868878,0.9099616,0
291002243,0.89914227,-0.013128555,-0.00066162576,0.43745887,-0.0012849299,-0.19176432,9.839896,-0.35207215,0.6515422,0.94717693,0
291018910,0.89911646,-0.01318814,-0.0006126583,0.4375106,-0.015952827,-0.18000396,9.848525,-0.36653057,0.74960047,0.9185418,0
291035577,0.89909154,-0.013218594,-0.0005728888,0.4375607,0.001830271,-0.19614914,9.8455925,-0.21697797,0.60616934,0.94079924,0
291052244,0.8990573,-0.013265115,-0.0005392014,0.43762967,0.00014277699,-0.18473098,9.838342,-0.33493724,0.6221005,0.9508139,0
291068911,0.8990357,-0.013312758,-0.0004993069,0.4376727,0.008365009,-0.18284498,9.837688,-0.32653636,0.6645664,0.96829456,0
291085578,0.8990134,-0.0133680785,-0.00046432109,0.4377169,0.0040141805,-0.19843785,9.842337,-0.39000455,0.66413087,0.873361,0
291102245,0.8989927,-0.013421909,-0.00042748012,0.4377578,-0.0047472273,-0.19573808,9.851908,-0.37713414,0.67287755,0.95383614,0
291118912,0.89896417,-0.013463769,-0.00037797593,0.43781525,-0.0041386494,-0.19562158,9.846582,-0.26556528,0.72003067,0.9535289,0
291135579,0.8989393,-0.013513568,-0.00033828654,0.4378648,0.003925006,-0.18137568,9.851352,-0.34542567,0.6869006,0.9168002,0
291152246,0.89892197,-0.013559097,-0.0002991854,0.43789908,0.01331724,-0.20516405,9.844385,-0.32378292,0.6740046,0.88715345,0
291168913,0.8988912,-0.013608918,-0.0002636085,0.4379606,0.0029057553,-0.19549482,9.859072,-0.36092138,0.6714946,0.9450254,0
291185580,0.8988545,-0.0136524495,-0.00022640554,0.43803453,0.012081148,-0.18842496,9.846993,-0.31782797,0.6686899,0.9225373,0
291202247,0.8988243,-0.013709633,-0.00019085033,0.43809485,-4.6251633e-05,-0.1806434,9.866721,-0.4098416,0.7036,0.91966873,0
291218914,0.898812,-0.013755285,-0.00016373966,0.43811867,-0.001686672,-0.18476926,9.8476925,-0.36893815,0.61660653,0.9520049,0
291235581,0.8988071,-0.01379796,-0.0001420054,0.438127,0.0017980296,-0.19516373,9.847216,-0.3703212,0.57627934,0.982548,0
291252248,0.89877826,-0.013834591,-0.00010306667,0.4381854,-0.004333494,-0.184833,9.8439245,-0.2797931,0.6751955,0.92038596,0
291268915,0.89874333,-0.013872675,-6.835694e-05,0.43825567,0.0026006652,-0.18826768,9.846493,-0.30439416,0.6567801,0.9950983,0
291285582,0.89871395,-0.013915973,-3.520919e-05,0.43831456,0.008291584,-0.19297329,9.851141,-0.34377363,0.6671788,0.9639275,0
291302249,0.89869016,-0.013961101,-2.3089171e-07,0.4383619,0.00081459107,-0.1897164,9.86032,-0.35104766,0.6901278,0.88419515,0
291318916,0.8986561,-0.014006688,3.4628265e-05,0.4384305,0.008649812,-0.2045871,9.837902,-0.3565288,0.6953528,0.9691398,0
291335583,0.89863956,-0.014044211,6.736894e-05,0.4384631,0.008640678,-0.18386123,9.83624,-0.3153563,0.66080123,0.9297472,0
291352250,0.8986135,-0.014079267,9.591384e-05,0.4385153,0.007709333,-0.2055361,9.842379,-0.31451115,0.6348555,0.9235234,0
291368917,0.8985943,-0.014120128,0.0001267968,0.43855327,0.0032402803,-0.18274996,9.848719,-0.34452924,0.6719043,0.87990505,0
291385584,0.8985599,-0.014155171,0.00014672762,0.43862253,0.002898877,-0.19540597,9.838061,-0.3445164,0.59176224,0.99800515,0
291402251,0.8985313,-0.014181466,0.0001773937,0.43868026,0.0069126748,-0.18713026,9.83716,-0.2595975,0.6375193,0.924215,0
291418918,0.89850366,-0.014222676,0.00021113605,0.43873554,0.0029304228,-0.18788159,9.849689,-0.34533605,0.70644313,0.9358305,0
291435585,0.8984758,-0.01424805,0.00023824775,0.43879166,0.0005918631,-0.18650632,9.843442,-0.26976573,0.623381,0.9168769,0
291452252,0.8984541,-0.014278956,0.00026317377,0.438835,0.0026610475,-0.1872597,9.84754,-0.31381962,0.6303605,0.9158653,0
291468919,0.8984255,-0.014311354,0.0002966027,0.43889263,0.005581588,-0.19159889,9.846494,-0.30042416,0.6918567,1.0016807,0
291485586,0.8983963,-0.014331633,0.0003257494,0.43895188,-0.010348378,-0.18275033,9.855097,-0.23992693,0.63589287,0.9440008,0
291502253,0.89837295,-0.014361716,0.00035966706,0.43899873,0.003077027,-0.20359395,9.850655,-0.28903934,0.6993867,0.8933134,0
291518920,0.898338,-0.0143841505,0.00037981797,0.4390695,0.0015293498,-0.19598225,9.839122,-0.28468513,0.59691036,0.9749282,0
291535587,0.8983097,-0.014409138,0.00041881256,0.43912628,0.00038816623,-0.181389,9.843251,-0.24638139,0.7246409,0.9872863,0
291552254,0.8982847,-0.014439276,0.0004311422,0.4391767,0.007775639,-0.19167562,9.843211,-0.3615617,0.5811714,0.94370633,0
291568921,0.8982522,-0.014480388,0.00045589442,0.4392415,0.0069932826,-0.18022671,9.843519,-0.39278355,0.69946367,0.8979236,0
291585588,0.8982222,-0.014509325,0.000492714,0.4393019,0.0019212652,-0.18720664,9.8557205,-0.28528705,0.7411739,0.95252985,0
291602255,0.89818573,-0.014523465,0.00051791035,0.43937597,0.011104829,-0.19193496,9.837519,-0.23102656,0.63142353,0.95446366,0
291618922,0.8981616,-0.014558077,0.00053396204,0.43942422,0.014930541,-0.19624078,9.844578,-0.38828856,0.64124596,0.920386,0
291635589,0.89813894,-0.014586281,0.00055701984,0.43946943,0.00757595,-0.19020675,9.849414,-0.32982752,0.6711104,0.92570055,0
291652256,0.8980967,-0.014616877,0.00057216897,0.4395547,-0.00094256795,-0.20187058,9.835225,-0.36946318,0.6381981,0.9704716,0
291668923,0.90190506,-0.008439164,-0.0043643424,0.43182984,0.00063796365,-0.1874054,9.847756,-0.3672861,0.67898625,0.94960994,0
291685590,0.9018761,-0.008438331,-0.0043566246,0.43189055,0.005513509,-0.18670313,9.846464,-0.3016536,0.717162,0.90935975,0
291702257,0.9018896,-0.008437688,-0.0043555624,0.4318623,0.005095493,-0.19530539,9.849349,-0.32239985,0.66912544,0.9553344,0
291718924,0.9018927,-0.008442088,-0.0043482445,0.43185592,-0.0021211607,-0.18318848,9.844904,-0.3349757,0.7252429,0.91979694,0
291735591,0.9019058,-0.008443817,-0.00433874,0.43182865,0.008727556,-0.19900542,9.83992,-0.31203952,0.72977614,0.8897659,0
291752258,0.90189683,-0.008451886,-0.004338906,0.43184718,-0.00013327372,-0.18714766,9.846419,-0.3798492,0.6909986,0.95073706,0
291768925,0.90190893,-0.008447977,-0.004330806,0.43182206,0.0043598656,-0.18100972,9.836741,-0.28100973,0.70421475,0.9094621,0
291785592,0.9019182,-0.008454455,-0.0043291347,0.4318026,0.0074476097,-0.18835828,9.844295,-0.36475044,0.69631326,0.87567896,0
291802259,0.9019243,-0.008467999,-0.0043158806,0.43178958,-0.0015918072,-0.19986993,9.840087,-0.3740991,0.7867518,1.0304053,0
291818926,0.90192115,-0.008466854,-0.00430467,0.43179637,0.0056651,-0.19462769,9.842481,-0.2888728,0.7333236,0.9513773,0
291835593,0.9019266,-0.008454474,-0.0043052468,0.43178543,-0.0015853314,-0.19213374,9.841629,-0.25398836,0.62530214,0.9695752,0
291852260,0.9019292,-0.008454195,-0.0043010446,0.43177995,0.0073703723,-0.19134419,9.855265,-0.31479287,0.6912419,0.96732116,0
291868927,0.9019292,-0.008441593,-0.004300174,0.43178028,-0.00042874465,-0.18854104,9.847058,-0.24822548,0.6350989,0.93836606,0
291885594,0.9019266,-0.008442559,-0.004301805,0.43178573,0.0107494965,-0.1924413,9.84068,-0.33984208,0.66058356,0.91864437,0
291902261,0.901929,-0.008444978,-0.0042979633,0.43178025,-0.001474336,-0.19205394,9.837078,-0.33250406,0.6987337,0.8925449,0
291918928,0.9019298,-0.008454065,-0.0042961827,0.4317785,0.0036252579,-0.20224687,9.8355465,-0.37991315,0.70640457,0.8677774,0
291935595,0.90193295,-0.008452229,-0.004300854,0.43177187,-0.00039644976,-0.19369934,9.83397,-0.33099288,0.63325477,0.8890103,0
291952262,0.9019199,-0.00846062,-0.004302041,0.43179896,0.0020678956,-0.1919335,9.858239,-0.38399842,0.68544066,1.0045621,0
291968929,0.90192914,-0.008461277,-0.0043058977,0.43177974,-0.013358382,-0.18837759,9.842399,-0.3438121,0.6430645,0.97600394,0
291985596,0.9019312,-0.008464745,-0.0043073096,0.43177545,0.0002726349,-0.18874224,9.846741,-0.35406998,0.66811377,0.9347291,0
292002263,0.90193754,-0.008468153,-0.004304755,0.43176228,0.0006871555,-0.18754967,9.859286,-0.34196797,0.69268906,0.8921351,0
292018930,0.9019494,-0.00846971,-0.0043091164,0.4317375,-0.005745118,-0.1839271,9.840418,-0.35103482,0.64297473,0.91596776,0
292035597,0.9019548,-0.008462578,-0.0043098154,0.43172613,0.0027541346,-0.1988008,9.846856,-0.2864268,0.6406441,0.9197713,0
292052264,0.90196794,-0.008463098,-0.0043010483,0.43169874,0.009727228,-0.17604649,9.843804,-0.3055723,0.7205173,0.9427586,0
292068931,0.90197986,-0.00845671,-0.004300601,0.43167403,0.0012759212,-0.18360534,9.842386,-0.28773308,0.6498262,0.88616735,0
292085598,0.90198374,-0.008449633,-0.0042932807,0.43166608,0.0024696116,-0.19577143,9.852311,-0.26318327,0.69098574,0.9198993,0
292102265,0.90198696,-0.008456184,-0.0042934646,0.43165907,-0.006150322,-0.19487804,9.845474,-0.36984742,0.6842753,0.95712745,0
292118932,0.90199876,-0.008457745,-0.004291377,0.4316344,-0.013193381,-0.19457437,9.85876,-0.33203027,0.6826617,0.9285436,0
292135599,0.9019974,-0.008455918,-0.004290355,0.43163732,0.00216565,-0.19054781,9.841185,-0.31413978,0.66799843,0.9158781,0
292152266,0.9019989,-0.008464214,-0.0042810068,0.43163422,0.003368462,-0.18346812,9.833192,-0.35221303,0.7494596,0.9076565,0
292168933,0.9020012,-0.008464476,-0.004278958,0.4316293,0.010604162,-0.18957074,9.858176,-0.3241287,0.6792936,0.95714015,0
292185600,0.9020059,-0.008464382,-0.0042856727,0.43161973,-0.0014111773,-0.18565312,9.832339,-0.34789732,0.6234707,0.96867865,0
292202267,0.9020136,-0.008474489,-0.004289811,0.43160307,0.0022791396,-0.20022136,9.850742,-0.40360487,0.6695992,0.9473561,0
292218934,0.90203047,-0.008477341,-0.004283292,0.4315678,0.00024642423,-0.1872026,9.846106,-0.326754,0.71329445,0.92260134,0
292235601,0.90204346,-0.008478835,-0.0042917137,0.43154046,0.004052583,-0.19397064,9.837682,-0.36277828,0.6179384,0.88338834,0
292252268,0.90205574,-0.008475954,-0.004293246,0.43151513,0.0041715736,-0.19563392,9.842497,-0.31508744,0.6468295,0.9380459,0
292268935,0.9020617,-0.008476514,-0.0042967494,0.43150264,-0.0015026336,-0.19702196,9.859137,-0.34221128,0.6455873,0.95053214,0
292285602,0.90207624,-0.00848002,-0.0043071983,0.431472,-0.0030048513,-0.19362523,9.840738,-0.38098896,0.6109205,0.8958362,0
292302269,0.9020889,-0.00848923,-0.0043107504,0.43144545,0.0095571745,-0.18746512,9.84162,-0.39579308,0.6694455,0.9680256,0
292318936,0.9020896,-0.00848791,-0.0043115076,0.431444,0.0038495553,-0.19542834,9.85099,-0.32231024,0.657446,0.97308415,0
292335603,0.9020878,-0.00848245,-0.0043082815,0.43144768,-0.00887773,-0.18529609,9.841728,-0.28474918,0.6704444,0.96540016,0
292352270,0.9020929,-0.008481089,-0.004305627,0.43143716,0.0079243,-0.19023038,9.845155,-0.3119627,0.6787045,0.92165387,0
292368937,0.9020961,-0.008483316,-0.004300207,0.4314303,-0.011721266,-0.20035177,9.849895,-0.32602406,0.7076213,0.88210773,0
292385604,0.90210706,-0.008480159,-0.0042993445,0.4314076,0.0158122,-0.18311274,9.838422,-0.3059693,0.66095495,0.9370343,0
292402271,0.9021081,-0.0084778955,-0.004303643,0.43140548,0.004203282,-0.18735236,9.841224,-0.32698452,0.63337004,0.9349084,0
292418938,0.9021124,-0.008466454,-0.004306005,0.43139648,-0.0013093053,-0.19154486,9.841604,-0.26433587,0.6178872,0.92544454,0
292435605,0.902109,-0.008468926,-0.004307524,0.43140358,-0.008867454,-0.18155858,9.848007,-0.3481278,0.6643742,0.9871582,0
292452272,0.9021122,-0.008465808,-0.004305739,0.4313971,-0.0073520285,-0.18301031,9.865396,-0.3038179,0.6682546,0.92780083,0
292468939,0.9021171,-0.008461571,-0.0043023345,0.431387,0.006528528,-0.18695866,9.847272,-0.29216403,0.67468333,0.92317766,0
292485606,0.9021097,-0.008460643,-0.0042948113,0.43140247,-0.001987189,-0.18110055,9.8471575,-0.30056503,0.71178335,0.934537,0
292502273,0.9021033,-0.00845688,-0.0042834445,0.43141598,0.0007814281,-0.19257641,9.840443,-0.27168673,0.7257423,1.0033071,0
292518940,0.9020952,-0.00846058,-0.00428204,0.4314329,0.006949306,-0.1916475,9.845755,-0.34751314,0.68748975,0.9422977,0
292535607,0.9020885,-0.00847458,-0.0042851884,0.43144652,0.0031911193,-0.18223265,9.850148,-0.42487624,0.6898973,0.92881256,0
292552274,0.9020751,-0.008478054,-0.004287114,0.43147448,0.0029731696,-0.19815546,9.856668,-0.35609335,0.6668074,0.95662785,0
292568941,0.9020721,-0.008470096,-0.004279944,0.4314811,0.007871653,-0.2009831,9.844269,-0.25806075,0.68857825,0.91398275,0
292585608,0.90206254,-0.008461587,-0.004271589,0.4315014,0.0037406161,-0.1781441,9.847045,-0.2510172,0.69528866,0.9209494,0
292602275,0.9020688,-0.008458662,-0.0042798137,0.43148828,-0.005474656,-0.19131528,9.839947,-0.33492446,0.60570836,0.97038186,0
292618942,0.9020699,-0.008448675,-0.0042756884,0.4314862,-0.0073848916,-0.19649573,9.838935,-0.25451338,0.66320884,0.91055065,0
292635609,0.9020704,-0.008441217,-0.004261222,0.43148556,0.004991688,-0.1910723,9.848732,-0.23945312,0.73591053,0.8552273,0
292652276,0.9020642,-0.008443142,-0.0042629815,0.43149823,-0.010861884,-0.18125978,9.84648,-0.34574586,0.6618514,0.97506917,0
292668943,0.902056,-0.008445309,-0.0042601884,0.43151543,0.01246255,-0.20617932,9.86276,-0.33384874,0.6918311,0.93028533,0
292685610,0.90206456,-0.008444028,-0.0042537926,0.4314976,0.009519222,-0.19523025,9.846389,-0.3015127,0.7013846,0.93948025,0
292702277,0.90206915,-0.00844041,-0.004242951,0.43148822,0.009250464,-0.1956229,9.845775,-0.27377412,0.72293764,0.9288893,0
292718944,0.9020676,-0.008435304,-0.0042387014,0.4314916,0.011228185,-0.18713662,9.858313,-0.28408325,0.6790119,0.91212577,0
292735611,0.90206295,-0.008437058,-0.0042416905,0.43150136,-0.0013235343,-0.19232234,9.84608,-0.34814066,0.6546414,0.9333332,0
292752278,0.9020585,-0.008434685,-0.0042378935,0.43151087,0.01041311,-0.18887721,9.843636,-0.3024091,0.68591446,0.85773724,0
292768945,0.90205276,-0.008435534,-0.0042335144,0.43152252,-0.003245629,-0.19225821,9.847829,-0.3206454,0.6977476,0.94202876,0
292785612,0.902034,-0.008427796,-0.0042417007,0.43156192,-0.0009386206,-0.18796973,9.836489,-0.30466306,0.59560406,0.9783474,0
292802279,0.90205175,-0.008444704,-0.004248335,0.43152437,-0.0044028712,-0.1873155,9.854426,-0.45287094,0.6756054,0.8297426,0
292818946,0.9020516,-0.008450153,-0.0042530685,0.43152452,0.011064289,-0.19377792,9.8470125,-0.37623775,0.65424436,0.9251755,0
292835613,0.9020476,-0.00844702,-0.0042603295,0.43153286,0.017917424,-0.19560938,9.865825,-0.33049345,0.61439097,0.8967582,0
292852280,0.90204084,-0.008447096,-0.004256933,0.431547,0.005088499,-0.19817203,9.841191,-0.31871164,0.6908065,0.8856423,0
292868947,0.902051,-0.008462861,-0.004260497,0.43152574,0.0017748219,-0.1850416,9.847667,-0.43647885,0.6903712,0.95288855,0
292885614,0.9020537,-0.008464522,-0.004255532,0.4315197,0.003388455,-0.1788788,9.835228,-0.3238086,0.7028317,0.940492,0
292902281,0.90205693,-0.008473554,-0.0042705764,0.43151268,-0.0041300855,-0.19617018,9.846307,-0.4289999,0.59997106,0.9680256,0
292918948,0.9020575,-0.008470762,-0.0042726127,0.4315114,0.00493117,-0.19305655,9.832029,-0.3170468,0.6463557,0.9458193,0
292935615,0.90205127,-0.008477475,-0.004275683,0.4315246,0.004337332,-0.1888644,9.832891,-0.37904233,0.66876686,0.97184193,0
292952282,0.9020532,-0.00847851,-0.004274752,0.43152055,-0.027545558,-0.19486994,9.835273,-0.33197904,0.67705256,0.8881012,0
292968949,0.902054,-0.0084801195,-0.0042686546,0.43151876,0.00037291506,-0.19563729,9.862953,-0.3201587,0.7092092,0.9684097,0
292985616,0.90206164,-0.008481064,-0.004272028,0.43150282,0.010962996,-0.18546435,9.841542,-0.34406823,0.6480333,0.93575364,0
293002283,0.90207726,-0.008492191,-0.004271174,0.43146998,-0.0036688535,-0.19800802,9.851314,-0.39474297,0.70444536,0.87952095,0
293018950,0.90208966,-0.008487101,-0.004268135,0.43144414,0.007459519,-0.20019902,9.844891,-0.28757942,0.6691382,0.9411835,0
293035617,0.9020993,-0.008475742,-0.004261779,0.43142432,0.011761459,-0.18916865,9.852485,-0.23881279,0.6728007,0.8800203,0
293052284,0.9021118,-0.008449069,-0.0042528133,0.43139878,-0.002012511,-0.1890607,9.83715,-0.13609307,0.6431668,0.88356763,1
293068951,0.90212077,-0.008432221,-0.0042455597,0.4313807,0.0125430785,-0.19742711,9.837505,-0.20212263,0.661544,0.91905415,0
293085618,0.90213937,-0.008423592,-0.004248532,0.43134162,-0.0050311326,-0.20331414,9.840625,-0.28337893,0.62238216,0.8507834,0
293102285,0.90214413,-0.008423635,-0.0042527663,0.4313317,-0.004153062,-0.1716266,9.849696,-0.3407898,0.64013183,0.96843547,0
293118952,0.90216005,-0.008432285,-0.0042504105,0.43129823,0.0034789671,-0.18362236,9.849044,-0.3748034,0.7064302,0.8808527,0
293135619,0.9021749,-0.008433638,-0.0042466936,0.43126714,0.0034370108,-0.18498054,9.853175,-0.3255886,0.69411045,0.8449053,0
293152286,0.9021923,-0.008425507,-0.0042538824,0.4312309,0.010079498,-0.19559085,9.838714,-0.2991179,0.5971409,0.8911874,0
293168953,0.90220463,-0.008416244,-0.004258812,0.43120512,0.0015221497,-0.19718404,9.841935,-0.28533825,0.6078598,0.92763436,0
293185620,0.90221626,-0.008428327,-0.004270533,0.43118063,0.012735597,-0.19069098,9.840153,-0.43783626,0.6288879,0.9408249,0
293202287,0.90222895,-0.008426688,-0.0042677587,0.431154,0.0032473933,-0.2010954,9.854777,-0.30972156,0.6784483,0.9220252,0
293218954,0.9022425,-0.008423232,-0.0042659687,0.43112585,0.015218672,-0.18175776,9.849755,-0.3012822,0.6670507,0.91122943,0
293235621,0.9022484,-0.008418355,-0.004268344,0.4311137,0.010886147,-0.20480965,9.855837,-0.30491915,0.6372119,0.96956235,0
293252288,0.9022623,-0.008424954,-0.0042690947,0.4310841,0.006212544,-0.18781698,9.840587,-0.37117922,0.68167555,0.88903594,0
293268955,0.90227497,-0.008430658,-0.004257625,0.43105784,0.00713042,-0.19350277,9.841879,-0.32940492,0.75465894,0.9104482,0
293285622,0.902285,-0.0084339,-0.0042495243,0.43103698,0.0108398665,-0.1985049,9.83232,-0.3241159,0.7265491,0.93127143,0
293302289,0.90229976,-0.008437154,-0.0042468016,0.4310056,0.011522459,-0.18165828,9.834859,-0.34005982,0.69345737,0.87916225,0
293318956,0.9023122,-0.008442637,-0.0042513837,0.43097973,-0.0025126424,-0.18431225,9.839532,-0.37561026,0.65425724,0.931169,0
293335623,0.90232325,-0.008447654,-0.0042550927,0.43095627,0.0015997998,-0.20271434,9.83902,-0.37019318,0.6578046,0.96459347,0
293352290,0.9023342,-0.00844743,-0.004247811,0.4309334,-0.012706498,-0.18118565,9.844513,-0.30502164,0.7114633,0.9149177,0
293368957,0.90234935,-0.008453773,-0.0042457413,0.4309015,0.014214625,-0.19565548,9.847926,-0.36127993,0.6984775,0.87689555,0
293385624,0.90235955,-0.008454521,-0.004244871,0.43088022,0.00051018776,-0.17860286,9.8393755,-0.3300965,0.6745681,0.9199122,0
293402291,0.9023689,-0.008458819,-0.0042476533,0.43086052,-0.0013221407,-0.18542702,9.85889,-0.36306,0.66278625,0.9065166,0
293418958,0.902372,-0.008458385,-0.004247801,0.43085402,0.0014802963,-0.19229504,9.849772,-0.32592162,0.66317046,1.056812,0
293435625,0.90237975,-0.008458153,-0.004253771,0.43083787,-0.0024067967,-0.19581094,9.843289,-0.34442678,0.6293232,0.92951685,0
293452292,0.902389,-0.008463047,-0.0042513353,0.4308185,-0.00455627,-0.19366908,9.848097,-0.35130382,0.6964158,0.9321679,0
293468959,0.9023948,-0.008461005,-0.0042526023,0.43080637,0.0057973247,-0.18572259,9.852736,-0.3192111,0.65286136,0.9580879,0
293485626,0.9024092,-0.00845822,-0.0042509763,0.4307763,-0.0037791643,-0.20273852,9.846512,-0.30607176,0.66894615,0.87466735,0
293502293,0.90242195,-0.0084571075,-0.004251374,0.43074962,0.003717786,-0.17909253,9.845515,-0.32236144,0.6620178,0.8495668,0
293518960,0.9024359,-0.008459759,-0.004248132,0.43072042,-0.0005626303,-0.17995499,9.851456,-0.33502692,0.69432825,0.9150842,0
293535627,0.9024457,-0.008457238,-0.0042479783,0.43069994,-0.0076451497,-0.18946052,9.844718,-0.31214193,0.6597639,0.9520303,0
293552294,0.902457,-0.008461828,-0.0042507164,0.43067604,0.00024689583,-0.19325374,9.839928,-0.36486572,0.6633625,0.91035855,0
293568961,0.90246725,-0.008458814,-0.0042475476,0.4306547,-0.0032866308,-0.19663845,9.854231,-0.30015522,0.6768733,0.95240194,0
293585628,0.9024769,-0.008457618,-0.004247454,0.43063447,0.0016168202,-0.19191395,9.84333,-0.32053015,0.663465,0.9388398,0
293602295,0.9024888,-0.008453961,-0.0042459155,0.43060938,-0.005205093,-0.18788,9.843334,-0.30098766,0.665514,0.9002801,0
293618962,0.9025001,-0.008463965,-0.0042472766,0.43058556,0.0061253654,-0.18492128,9.852303,-0.39434594,0.68710554,0.94961005,0
293635629,0.9025117,-0.008469381,-0.0042426647,0.43056104,0.0051130406,-0.2035705,9.847989,-0.34823027,0.711015,0.9267252,0
293652296,0.90252334,-0.008465203,-0.004236283,0.4305367,-0.006066337,-0.18865573,9.823847,-0.28339174,0.69400805,0.9067343,0
293668963,0.9025116,-0.008480441,-0.0043195644,0.43056017,-0.0151213575,-0.18267731,9.839309,-0.35839853,0.6917798,0.9551808,0
293685630,0.90251535,-0.008498624,-0.004327259,0.43055218,0.016143117,-0.18915385,9.844823,-0.46255258,0.6756182,0.9260849,0
293702297,0.9025267,-0.008503649,-0.004318614,0.43052846,0.002323442,-0.19219777,9.849606,-0.3325809,0.73851013,0.8493747,0
293718964,0.90253025,-0.0085071875,-0.004327477,0.4305208,0.006140958,-0.17564413,9.854616,-0.3751876,0.62536603,0.91714585,0
293735631,0.90253675,-0.008505589,-0.004331255,0.43050727,0.011420854,-0.18127389,9.851646,-0.32831633,0.64040065,0.96180165,0
293752298,0.9025359,-0.008496685,-0.00432682,0.43050918,-0.014607532,-0.19045627,9.847676,-0.2587395,0.66988087,1.0181496,0
293768965,0.90254134,-0.008497795,-0.0043271547,0.4304979,-0.006025469,-0.17947552,9.848484,-0.33503976,0.67026514,0.94432104,0
293785632,0.90254295,-0.008493544,-0.004329854,0.43049428,0.009091489,-0.19217949,9.852816,-0.30885074,0.6401958,0.94836783,0
293802299,0.9025489,-0.008489241,-0.004332304,0.43048188,0.0013287403,-0.19430214,9.849402,-0.3077878,0.64100254,0.9470102,0
293818966,0.90255123,-0.008502261,-0.004333154,0.4304766,0.0020208622,-0.18732579,9.830355,-0.410546,0.70302385,0.9323472,0
293835633,0.9025564,-0.008496961,-0.0043289075,0.43046597,0.016024048,-0.18761556,9.840476,-0.2817781,0.6798955,0.9394034,0
293852300,0.90256923,-0.008493152,-0.0043251263,0.43043953,0.005919962,-0.19478315,9.835889,-0.29243296,0.6811121,0.9003184,0
293868967,0.9025696,-0.0084876185,-0.004330892,0.4304384,0.00507774,-0.18930843,9.849107,-0.30996487,0.61752856,0.9582544,0
293885634,0.9025721,-0.008473323,-0.0043250322,0.43043366,0.009705468,-0.2000794,9.845622,-0.22116567,0.6632729,0.97116315,0
293902301,0.90257704,-0.008479398,-0.0043231403,0.43042314,-0.0031724204,-0.19307089,9.835501,-0.35926932,0.6989898,0.9467543,0
293918968,0.9025826,-0.008486448,-0.0043254006,0.43041137,0.0061201802,-0.18242608,9.849159,-0.37759522,0.67516994,0.9909361,0
293935635,0.90259296,-0.008486663,-0.0043277764,0.4303896,0.0035944679,-0.19114923,9.83868,-0.33560318,0.65528166,0.8989353,0
293952302,0.90259814,-0.008493379,-0.004324912,0.4303785,-0.001061412,-0.18569325,9.849868,-0.36044753,0.7070193,0.9444618,0
293968969,0.9026112,-0.008501264,-0.0043150303,0.43035144,0.0016882349,-0.19584697,9.839871,-0.34696242,0.7540699,0.8782531,0
293985636,0.9026236,-0.008503923,-0.0043045236,0.43032545,0.011699383,-0.19226296,9.845921,-0.31265423,0.7424546,0.88416964,0
294002303,0.9026347,-0.00850784,-0.0043070614,0.43030205,-3.7090096e-05,-0.17554167,9.856261,-0.35903877,0.66497606,0.90891135,0
294018970,0.90264285,-0.008502279,-0.0043085515,0.43028513,0.0020672046,-0.18670964,9.847827,-0.29722255,0.64332056,0.94079924,0
294035637,0.90265423,-0.008506469,-0.004313778,0.43026078,0.0009852034,-0.18441652,9.840432,-0.3688485,0.6496341,0.8780481,0
294052304,0.90266013,-0.008505737,-0.0043077157,0.43024835,0.008988747,-0.19357108,9.847458,-0.3049192,0.7048423,0.93832767,0
294068971,0.90267086,-0.008504658,-0.0043147267,0.4302261,0.007001452,-0.18770023,9.84815,-0.34141728,0.62256145,0.9096414,0
294085638,0.90268284,-0.008499196,-0.0043045697,0.43020105,0.009728674,-0.19335425,9.843997,-0.26345223,0.7161247,0.9017655,0
294102305,0.9026928,-0.008492959,-0.0043130806,0.43018013,-0.015885914,-0.18633279,9.833869,-0.31385797,0.59812695,0.9124075,0
294118972,0.90269667,-0.008494784,-0.004308503,0.43017226,0.001093437,-0.19601937,9.836222,-0.32514045,0.7016151,1.0404454,0
294135639,0.9027081,-0.008503926,-0.004305916,0.43014795,0.00035754114,-0.19729896,9.843811,-0.37646827,0.7124236,0.8979493,0
294152306,0.90271515,-0.00850947,-0.004312292,0.43013304,-0.009507001,-0.1868848,9.835982,-0.3806175,0.6466758,0.9056715,0
294168973,0.9027268,-0.008522466,-0.004312451,0.43010825,-0.0010354795,-0.19679384,9.846235,-0.40850976,0.70727557,0.8657541,0
294185640,0.9027328,-0.0085292775,-0.0043128286,0.43009558,-0.0015721,-0.19159311,9.844492,-0.37074384,0.6874257,0.9214873,0
294202307,0.9027441,-0.008532166,-0.0043106615,0.4300718,0.0030489005,-0.19442442,9.82881,-0.33885598,0.6911267,0.90622205,0
294218974,0.90275234,-0.008544354,-0.004313527,0.43005425,0.0074358582,-0.18574536,9.83887,-0.41145518,0.6873744,0.9300291,0
294235641,0.9027603,-0.008533639,-0.0042994353,0.43003783,0.0068982407,-0.18016303,9.843988,-0.2192063,0.72506356,0.92960656,0
294252308,0.90276915,-0.008534574,-0.0042967093,0.43001923,0.013822888,-0.18758103,9.843106,-0.32519165,0.6889368,0.9240614,0
294268975,0.90277576,-0.008529923,-0.0042905416,0.43000546,0.010167588,-0.19073376,9.8493185,-0.2803566,0.6946868,0.8978723,0
294285642,0.90278125,-0.008540325,-0.004294992,0.42999357,0.001043508,-0.18802516,9.838118,-0.4051929,0.6727367,0.93776417,0
294302309,0.9027855,-0.008540823,-0.004300231,0.42998505,0.0005408872,-0.19022241,9.861096,-0.34610438,0.6393634,0.90967983,0
294318976,0.90278965,-0.008540682,-0.0043025636,0.42997628,0.010574296,-0.19201156,9.851145,-0.3335286,0.655,0.9362275,0
294335643,0.9027955,-0.008536447,-0.004298866,0.42996413,-0.0024660158,-0.18144228,9.860786,-0.29026875,0.6792168,0.9798843,0
294352310,0.9028025,-0.00854564,-0.004292679,0.42994925,-0.0011728662,-0.18893762,9.836468,-0.36628723,0.7345146,0.96333855,0
294368977,0.90281266,-0.008538148,-0.004298765,0.42992806,-0.0032750866,-0.19900525,9.840118,-0.29902825,0.60923004,0.92534196,0
294385644,0.90282094,-0.008537903,-0.004307754,0.4299106,0.0018512403,-0.19099325,9.848389,-0.35259724,0.6137379,0.8819669,0
294402311,0.90283054,-0.00853808,-0.004307978,0.4298904,0.0018614564,-0.19008797,9.846755,-0.3292897,0.66907424,0.8864748,0
294418978,0.90283287,-0.008551813,-0.0043147407,0.4298852,0.00019223365,-0.19294693,9.859982,-0.43280342,0.66894615,0.9255469,0
294435645,0.9028393,-0.008547685,-0.00431189,0.4298719,-0.00232592,-0.2083136,9.842653,-0.29352152,0.67583585,0.89554167,0
294452312,0.9028453,-0.00854841,-0.0043255026,0.4298588,0.0014942393,-0.19281146,9.837237,-0.37224215,0.5886248,0.86129755,0
294468979,0.9028524,-0.008548058,-0.0043329266,0.4298439,-0.007704805,-0.19204263,9.850931,-0.34723136,0.62268955,0.9157885,0
294485646,0.9028634,-0.008542883,-0.0043327967,0.42982098,-0.003556143,-0.19457689,9.838952,-0.29490456,0.6550768,0.8912515,0
294502313,0.902872,-0.00853398,-0.004331321,0.42980307,0.0071573053,-0.19135217,9.84011,-0.26778078,0.6519456,0.93759125,0
294518980,0.90288,-0.008530667,-0.0043341187,0.4297863,0.01589011,-0.18864843,9.854057,-0.31515145,0.64195025,0.941081,0
294535647,0.9028884,-0.008521028,-0.0043314965,0.42976892,0.0027692316,-0.18498558,9.867056,-0.25989208,0.65794533,0.89095694,0
294552314,0.90288895,-0.0085107125,-0.0043235444,0.42976803,-0.004634069,-0.18553004,9.835215,-0.23996536,0.68795073,1.0102224,0
294568981,0.90289664,-0.008514683,-0.004325779,0.42975166,-0.009404326,-0.1859014,9.840478,-0.3587443,0.66711485,0.9378283,0
294585648,0.9029031,-0.008502635,-0.0043190606,0.4297384,0.0047674235,-0.19779782,9.845032,-0.23289627,0.6754004,0.9482397,0
294602315,0.9029102,-0.008498403,-0.0043231887,0.4297236,-0.0032775518,-0.19358651,9.855285,-0.31344822,0.6316924,0.9133808,0
294618982,0.90291977,-0.008502533,-0.004327409,0.42970335,0.005316968,-0.19745193,9.842217,-0.36560845,0.65512794,0.9296577,0
294635649,0.90293235,-0.008506822,-0.004326967,0.42967683,0.003221721,-0.19957252,9.845223,-0.3528149,0.6856711,0.8472873,0
294652316,0.9029397,-0.0085046515,-0.004313952,0.42966154,0.005433639,-0.1896142,9.847299,-0.275503,0.7435816,0.9473562,0
294668983,0.9029486,-0.008506759,-0.0043047564,0.42964274,0.001995728,-0.1849744,9.842097,-0.31339696,0.73238873,0.9389679,0
294685650,0.90295655,-0.008509523,-0.0043028574,0.42962605,0.014311627,-0.18582249,9.8424015,-0.33898407,0.68893677,0.9500199,0
294702317,0.9029601,-0.008512813,-0.0043133064,0.42961824,0.004723449,-0.19704969,9.845561,-0.3787734,0.6138147,0.98686373,0
294718984,0.9029722,-0.008508355,-0.0043023727,0.42959332,-0.0010175346,-0.19256541,9.854532,-0.2675118,0.7241542,0.900933,0
294735651,0.90298265,-0.008506213,-0.004298039,0.42957154,0.007072877,-0.18235335,9.851446,-0.30138463,0.6904864,0.88797307,0
294752318,0.9029897,-0.008502687,-0.0042938087,0.42955682,0.013402876,-0.19438908,9.85159,-0.2931502,0.6855432,0.92841554,0
294768985,0.90299493,-0.008502516,-0.004291243,0.4295457,-0.0049315533,-0.18613677,9.848162,-0.31881404,0.68454427,0.97140646,0
294785652,0.90299714,-0.008502679,-0.0042809295,0.42954123,-0.0007002443,-0.18646294,9.844949,-0.298055,0.7338359,0.9877602,0
294802319,0.90301174,-0.008493142,-0.004271673,0.4295108,-0.0056448993,-0.18413107,9.835717,-0.24100272,0.69998866,0.8150666,0
294818986,0.9030216,-0.008507085,-0.004274481,0.42948982,-0.0068444833,-0.19881408,9.851495,-0.4224431,0.69339347,0.90757954,0
294835653,0.9030298,-0.0085090995,-0.004275154,0.42947254,0.0076238387,-0.19307996,9.846663,-0.3420192,0.6712384,0.9283642,0
294852320,0.90304106,-0.0085132625,-0.0042641107,0.4294487,-0.008077374,-0.17647764,9.846849,-0.32081187,0.7506122,0.8898557,0
294868987,0.9030495,-0.008502359,-0.0042655994,0.42943108,0.0033887294,-0.1825217,9.850882,-0.26429743,0.6281066,0.92098784,0
294885654,0.9030567,-0.008511064,-0.0042647924,0.4294158,0.008439177,-0.18157107,9.84489,-0.37928563,0.69997585,0.947638,0
294902321,0.9030699,-0.008520646,-0.0042706695,0.429388,0.0067336597,-0.18803819,9.843271,-0.40451413,0.6616336,0.86884034,0
294918988,0.90307736,-0.008517977,-0.004271824,0.4293724,0.0016347237,-0.2025118,9.842461,-0.31451115,0.6546926,0.92427903,0
294935655,0.90308267,-0.008514766,-0.0042729303,0.42936102,0.00039815955,-0.19646114,9.856087,-0.31097656,0.652887,0.966015,0
294952322,0.90309083,-0.008513512,-0.0042774575,0.429344,0.010674363,-0.17291905,9.852225,-0.33322123,0.6383645,0.8966941,0
294968989,0.90309453,-0.00852866,-0.004279422,0.4293359,0.0010280109,-0.1859906,9.852145,-0.42754,0.7014614,0.9970448,0
294985656,0.9031011,-0.008527043,-0.0042783967,0.4293221,0.00551841,-0.18877333,9.843928,-0.3146392,0.67093104,0.9526451,0
295002323,0.90311205,-0.008534938,-0.0042747813,0.4292988,-0.0052749263,-0.20213786,9.854174,-0.3660951,0.7161503,0.86499846,0
295018990,0.9031216,-0.008540499,-0.0042742575,0.42927855,-0.000110970694,-0.1877415,9.845994,-0.36066517,0.6893081,0.9131887,0
295035657,0.903131,-0.008548747,-0.0042630467,0.42925906,0.02279583,-0.18874918,9.845257,-0.3458099,0.7632008,0.937585,0
295052324,0.90313524,-0.008549538,-0.0042618234,0.4292499,0.015513364,-0.18501107,9.842509,-0.32903358,0.6790375,0.9863899,0
295068991,0.9031447,-0.008550173,-0.004274729,0.42922974,-4.9714465e-05,-0.18485798,9.855312,-0.36974487,0.59131396,0.9227038,0
295085658,0.9031501,-0.008560999,-0.004275349,0.42921832,0.0056126444,-0.18800925,9.849273,-0.3968432,0.6976964,0.9548991,0
295102325,0.9031525,-0.008562576,-0.004266612,0.42921326,0.006729032,-0.19548573,9.852112,-0.3117834,0.7285212,0.9813441,0
295118992,0.90316355,-0.008571976,-0.0042682374,0.42918995,0.0035874648,-0.1918774,9.845313,-0.39095223,0.6876562,0.8889592,0
295135659,0.9031648,-0.008570954,-0.004273331,0.42918736,-0.0063280277,-0.18153235,9.854305,-0.33644843,0.6347019,1.0056251,0
295152326,0.90317774,-0.008572822,-0.0042748745,0.42916015,-0.018116066,-0.19157484,9.861129,-0.34396574,0.6664873,0.8463653,0
295168993,0.9031853,-0.008567123,-0.00426634,0.4291443,-0.004514994,-0.20113893,9.841264,-0.2672045,0.70555943,0.9477403,0
295185660,0.9031911,-0.008576399,-0.0042552976,0.4291321,0.0014005633,-0.19691572,9.841367,-0.35278937,0.7651602,0.9687556,0
295202327,0.903197,-0.0085798595,-0.0042505558,0.42911935,-0.0044811387,-0.18740486,9.860761,-0.33524463,0.70901716,0.95817757,0
295218994,0.9032014,-0.008580631,-0.004257384,0.42911044,-0.0043789623,-0.19130547,9.851586,-0.35272527,0.62969464,0.9486496,0
295235661,0.9032118,-0.008578077,-0.004252229,0.42908847,-0.0054374854,-0.18433654,9.838131,-0.2967103,0.6943026,0.89746255,0
295252328,0.90322,-0.008579654,-0.0042419517,0.4290712,0.0014579409,-0.18757007,9.857393,-0.30728838,0.7378954,0.93717515,0
295268995,0.9032247,-0.008581561,-0.0042412844,0.4290612,0.006304623,-0.18328562,9.850948,-0.33769062,0.6783971,1.0059196,0
295285662,0.9032319,-0.008582503,-0.0042354874,0.42904598,0.007939044,-0.19570501,9.841619,-0.3165858,0.70815915,0.9485471,0
295302329,0.9032388,-0.0085952645,-0.0042438502,0.42903125,0.0035718791,-0.19998617,9.8397045,-0.43174046,0.6550896,0.9508139,0
295318996,0.90324944,-0.0085958345,-0.004243573,0.4290088,0.012952025,-0.19116046,9.847242,-0.3305319,0.6735692,0.88292736,0
295335663,0.9032622,-0.008583005,-0.004241839,0.42898235,0.0021136887,-0.19369723,9.835631,-0.24300048,0.6437047,0.8368885,0
295352330,0.903271,-0.008579789,-0.0042423694,0.42896372,0.009617744,-0.18267292,9.84092,-0.3094014,0.6575356,0.89317244,0
295368997,0.9032826,-0.008581565,-0.004234896,0.4289395,0.005650036,-0.19175221,9.860364,-0.31681627,0.7218747,0.87726694,0
295385664,0.90328896,-0.0085759675,-0.004231164,0.42892632,-0.021703253,-0.1963934,9.846872,-0.28204703,0.67701405,0.91074276,0
295402331,0.9032953,-0.008577233,-0.0042309975,0.42891297,-3.7347781e-06,-0.19397715,9.852281,-0.33518058,0.674837,0.92445844,0
295418998,0.9032998,-0.008580235,-0.00423421,0.4289033,-0.0005062539,-0.18333384,9.842776,-0.3559013,0.65820163,0.97486424,0
295435665,0.9033074,-0.008579836,-0.0042282026,0.42888734,-0.004809104,-0.19196734,9.860964,-0.30767256,0.7073652,0.8543052,0
295452332,0.90331787,-0.008592671,-0.0042260485,0.42886505,0.008982289,-0.16816121,9.834583,-0.4011973,0.7209911,0.90328956,0
295468999,0.90332603,-0.008584265,-0.0042210505,0.42884803,0.010697126,-0.17968637,9.840033,-0.2610062,0.6767836,0.89139235,0
295485666,0.9033284,-0.008577164,-0.0042092176,0.4288434,-0.0050762407,-0.18364628,9.849201,-0.24892984,0.7223358,0.9748515,0
295502333,0.903333,-0.008566915,-0.0042150146,0.42883387,0.0064708055,-0.19792373,9.841529,-0.28140673,0.60395396,0.93460107,0
295519000,0.903342,-0.0085573755,-0.004213606,0.4288151,-0.00093442446,-0.19658385,9.854875,-0.26455358,0.65087634,0.8983591,0
295535667,0.9033462,-0.008555911,-0.004219333,0.4288063,-0.0020982341,-0.18432955,9.837287,-0.33569288,0.629605,0.9763497,0
295552334,0.90335035,-0.008564082,-0.004218376,0.4287973,0.0071767215,-0.17883353,9.845173,-0.37589198,0.69942516,0.98034537,0
295569001,0.9033601,-0.008560759,-0.004211286,0.4287768,-0.008978315,-0.18521279,9.847285,-0.28645244,0.7040227,0.9123308,0
295585668,0.903364,-0.008562945,-0.00420713,0.42876858,-0.0005749912,-0.20128231,9.842819,-0.32936653,0.70202494,0.9613791,0
295602335,0.90337235,-0.008559182,-0.004196908,0.4287512,-0.008192653,-0.19432265,9.848519,-0.2744913,0.72231007,0.92174345,0
295619002,0.9033818,-0.008561792,-0.0041818595,0.42873138,0.009513457,-0.18713476,9.848489,-0.29979667,0.7714354,0.8910467,0
295635669,0.9033936,-0.008575131,-0.0041841012,0.42870617,0.0009733641,-0.17776667,9.8316555,-0.41744858,0.6958266,0.86526746,0
295652336,0.9034036,-0.0085724415,-0.00418762,0.42868522,-0.00127386,-0.18630806,9.858747,-0.3217083,0.6405031,0.88771695,0
295669003,0.9033967,-0.008525748,-0.00425482,0.42869988,-0.0056671775,-0.18585949,9.843126,-0.29646698,0.67268556,0.95359284,0
295685670,0.90340805,-0.008514355,-0.0042583453,0.42867607,0.010820333,-0.19844201,9.837216,-0.267832,0.616312,0.8803662,0
295702337,0.9034179,-0.008510525,-0.0042530512,0.42865577,-0.0037295322,-0.19238281,9.841034,-0.2887832,0.6931757,0.9076052,0
295719004,0.9034264,-0.008510421,-0.00425547,0.42863777,-0.007971861,-0.19781083,9.829538,-0.3346939,0.6563318,0.9158013,0
295735671,0.9034313,-0.00850281,-0.0042578704,0.42862764,-0.008268789,-0.1817646,9.851638,-0.28793797,0.63388234,0.96104604,0
295752338,0.9034366,-0.008507077,-0.0042564785,0.42861634,-0.0006730319,-0.18459561,9.851087,-0.35058662,0.69372636,0.8899324,0
295769005,0.90344405,-0.008513017,-0.0042556813,0.4286005,-0.00061008695,-0.20079383,9.84363,-0.36275265,0.6936495,0.94328374,0
295785672,0.90344507,-0.008515791,-0.004264302,0.4285982,-0.0026060175,-0.18226565,9.844023,-0.37080786,0.6265315,0.9588562,0
295802339,0.903451,-0.008511689,-0.004267749,0.42858568,0.0001670915,-0.20388044,9.861035,-0.31283352,0.6378267,0.94628036,0
295819006,0.9034596,-0.008516694,-0.0042720814,0.42856753,0.001697832,-0.19554515,9.846866,-0.37202445,0.65959734,0.9059916,0
295835673,0.9034642,-0.008527864,-0.0042692795,0.4285578,-0.006040719,-0.1969147,9.848313,-0.38930026,0.7225023,0.91359866,0
295852340,0.9034705,-0.008525774,-0.0042715105,0.4285442,0.01136174,-0.18849298,9.858809,-0.3217083,0.65155506,0.93148917,0
295869007,0.90347576,-0.008528503,-0.0042720824,0.4285332,0.0028746268,-0.17614543,9.848229,-0.34678313,0.67654026,0.91813207,0
295885674,0.90348583,-0.008532973,-0.0042774216,0.42851192,0.006264467,-0.18664317,9.8417845,-0.3716915,0.65215695,0.8734636,0
295902341,0.90348774,-0.0085244,-0.0042729913,0.42850783,0.0039809356,-0.2022404,9.833654,-0.26186422,0.6744656,0.93460095,0
295919008,0.9034836,-0.008528561,-0.0042674574,0.42851648,0.0103104925,-0.19274202,9.844565,-0.33771622,0.7188141,0.98881024,0
295935675,0.9034849,-0.008534636,-0.0042813662,0.42851347,0.006962452,-0.1950425,9.841473,-0.4068705,0.6039026,0.93410146,0
295952342,0.903488,-0.008533177,-0.0042736884,0.4285073,-0.007173633,-0.1842155,9.849049,-0.2964542,0.71568924,0.9257391,0
295969009,0.9034934,-0.00852411,-0.0042762123,0.42849603,-0.002544611,-0.19576044,9.853079,-0.27928087,0.6299379,0.9054281,0
295985676,0.90349185,-0.008534949,-0.0042752246,0.42849916,-0.0071816538,-0.19397964,9.844517,-0.3925787,0.70946544,1.0102098,0
296002343,0.9035009,-0.008517596,-0.004260552,0.42848048,0.021478577,-0.18781526,9.846561,-0.1771118,0.71133506,0.9307591,0
296019010,0.9029111,-0.00843732,-0.0042259404,0.42972395,0.49309468,-0.21613891,9.809477,0.2743313,0.5620901,10.346927,0
296035677,0.8997686,-0.008633524,-0.004259572,0.43626142,0.96964556,-0.32010812,9.8691435,-1.6378318,0.5730317,50.875565,0
296052344,0.8960815,-0.00875665,-0.00425718,0.44378287,-0.38862106,-0.124330536,9.861222,-1.080805,0.50460833,58.608482,0
296069011,0.8929239,-0.008982465,-0.0043116873,0.4500977,-0.12699953,-0.249436,9.8392515,-1.8907332,0.55307907,49.628464,0
296085678,0.89170945,-0.009060148,-0.004340126,0.45249707,-1.0019859,0.0015389397,9.851609,-0.89658654,0.553331,19.590864,0
296102345,0.89170605,-0.009119934,-0.0043508345,0.4525022,-0.14167976,-0.21441245,9.846199,-0.7282331,0.7886598,1.1607484,0
296119012,0.8917199,-0.009117917,-0.0043486026,0.45247498,-0.001406294,-0.18529296,9.852578,-0.30895317,0.67838424,0.88726866,0
296135679,0.8917336,-0.009119957,-0.004355942,0.45244798,-0.0030622592,-0.19309233,9.846239,-0.36366192,0.63187176,0.91085815,0
296152346,0.8917451,-0.00911293,-0.004359909,0.4524255,0.007798762,-0.1917724,9.843992,-0.29759392,0.6250715,0.89444023,0
296169013,0.8917467,-0.009111796,-0.0043617915,0.4524223,-0.012668034,-0.20641369,9.843295,-0.32724065,0.65751,0.9037633,0
296185680,0.89175564,-0.0091165425,-0.004367438,0.45240447,-0.010202708,-0.18320924,9.843879,-0.37499553,0.6508379,0.938238,0
296202347,0.89175785,-0.009020547,-0.0043373033,0.4524024,0.0022550032,-0.18357725,9.834923,0.3539611,0.55616057,1.0312376,0
296219014,0.89177036,-0.009252615,-0.004410143,0.45237243,-0.007089723,-0.21152675,9.877869,-1.9780049,0.9473946,0.82888466,0
296235681,0.8912838,-0.009192619,-0.004367107,0.45333192,-1.008964,0.52729756,9.828553,0.17136818,0.67015,8.504154,0
296252348,0.88985664,-0.009022174,-0.004312527,0.45613098,-0.7029479,-0.11908562,9.844427,0.87813944,0.24971788,22.704475,0
296269015,0.8896139,-0.009131246,-0.0043547177,0.45660132,1.521973,-0.94265276,9.829831,-1.1312233,0.7122187,4.74175,0
296285682,0.8896317,-0.009532738,-0.004508882,0.456557,0.016795564,-0.18000823,9.808935,-3.2685773,0.989156,0.78007954,0
296302349,0.8903656,-0.009664168,-0.004556335,0.45512095,-0.30580217,-0.45130202,9.940919,-1.2780359,0.9074519,-9.980363,0
296319016,0.891468,-0.009027415,-0.004290856,0.45297372,-0.8436158,-0.09398818,9.820863,4.406496,0.478388,-15.529825,0
296335683,0.89271754,-0.008957026,-0.003875167,0.45051095,0.37966263,-0.1551384,9.865281,1.4025209,3.1845393,-17.87502,0
296352350,0.8943278,-0.009349689,-0.0026780388,0.44730657,0.3628573,-0.22958729,9.808618,0.983024,9.471731,-23.498499,0
296369017,0.8960104,-0.012771205,-0.0025783735,0.4438418,0.1729875,-0.16372184,9.799549,-21.016653,12.056699,-25.313791,0
296385684,0.8968895,-0.018094003,-0.0042387745,0.44186404,0.26498964,-0.13126963,9.956905,-38.14494,6.8710375,-13.848498,0
296402351,0.89761364,-0.02116351,-0.005036338,0.44024584,-0.4063298,-0.2379143,10.271494,-21.636747,5.3025513,-11.271214,0
296419018,0.8975296,-0.020727467,-0.0058025876,0.4404288,-0.7537499,0.07069243,9.774403,0.037196048,-5.40323,2.114591,0
296435685,0.89790446,-0.020503007,-0.005690914,0.43967614,-0.28481945,-0.6831716,9.538786,1.4170164,0.80578196,-4.932789,0
296452352,0.89833826,-0.020785404,-0.004832552,0.43878582,0.15706119,-0.5715979,9.978748,0.5482976,6.966189,-5.7742567,0
296469019,0.8985684,-0.020796852,-0.0033671586,0.4383275,0.38692644,-0.42914954,10.266275,4.038772,9.8303175,-2.4163542,0
296485686,0.8984452,-0.020131823,-0.0032134438,0.4386123,0.2192201,-0.18934791,10.388366,4.230867,-0.42839807,3.1174054,0
296502353,0.8985757,-0.01923672,-0.0035072353,0.43838295,-0.1543782,-0.47516075,10.197178,4.326824,-3.8054578,-0.9788534,0
296519020,0.89879775,-0.018028185,-0.004066617,0.43797404,-0.9804201,0.0504041,10.250868,5.4696136,-6.3690486,-2.3019679,0
296535687,0.8992203,-0.01675555,-0.0031299752,0.4371642,-0.60855776,-0.04336626,9.9939575,10.383937,2.7384534,-5.267651,0
296552354,0.8998314,-0.0154554,-0.0015127104,0.43596178,-0.14785893,-0.16148382,9.857237,12.612339,6.911817,-8.183099,0
296569021,0.90031517,-0.013911711,-0.0009082734,0.43501553,0.3935831,-0.51740026,9.740263,11.071998,-0.11278558,-6.327877,0
296585688,0.9005444,-0.012319741,-0.0023528067,0.43458334,0.56586826,-0.6979842,9.761993,5.2221065,-12.989874,-2.5805712,0
296602355,0.9009082,-0.011123099,-0.0043869545,0.43384516,0.03498849,-0.48226273,9.778351,1.0200971,-15.429732,-4.920332,0
296619022,0.9012027,-0.010054391,-0.0055426178,0.43324596,-0.79648584,0.0054092635,9.702761,2.8475509,-9.619289,-3.7829463,0
296635689,0.9018057,-0.009413877,-0.0041641598,0.4320192,-0.6067363,0.10058302,9.917,7.739811,7.411187,-8.397846,0
296652356,0.90250576,-0.008354025,-0.0021230786,0.4305917,0.19039598,-0.04507648,10.071611,12.307846,10.288502,-9.899385,0
296669023,0.90314174,-0.0066702613,-0.0012514921,0.42928928,0.5016451,-0.1685538,10.013872,12.714814,1.1770263,-9.01035,0
296685690,0.90332913,-0.004639538,-0.002110266,0.42891783,0.52327996,-0.44644648,9.626184,9.749564,-10.636885,-1.9881362,0
296702357,0.903177,-0.0032636225,-0.0032562558,0.42924365,0.20209457,-0.5232751,9.226169,4.8357506,-10.515672,3.3443868,0
296719024,0.9025565,-0.0025462087,-0.004398729,0.4305418,-0.22629207,-0.23998858,9.239027,0.76923305,-8.582334,10.779539,0
296735691,0.9023946,-0.0025435665,-0.0044108164,0.4308806,-0.2807569,-0.1619583,9.551736,-0.34071296,0.5780467,3.509907,0
296752358,0.9026353,-0.0022816516,-0.003618055,0.43038517,0.09878421,0.17793041,10.214701,3.6341414,4.829576,-2.852141,0
296769025,0.90298796,-0.0013284737,-0.0029642924,0.42965373,0.15384658,0.2434152,10.3354845,7.5080643,1.9281309,-4.667647,0
296785692,0.90317416,0.0003527244,-0.0034139599,0.429261,0.34530586,0.09654164,10.253991,8.773077,-7.0791864,-2.0980523,0
296802359,0.9033502,0.0019882869,-0.0046956474,0.42887387,0.15335594,-0.31461802,9.713726,6.034029,-12.110678,-2.0298076,0
296819026,0.9032001,0.0030797122,-0.0064425017,0.42916054,-0.5170331,-0.17820916,9.237391,1.309674,-13.396435,3.1399202,0
296835693,0.9033266,0.0032611485,-0.006999164,0.4288843,-0.28493324,-0.078036726,9.374269,-0.859767,-3.3214805,-1.1566312,0
296852360,0.90363735,0.003465437,-0.0066202227,0.4282335,0.103013776,0.28677505,9.963788,2.0189915,2.421521,-4.0470505,0
296869027,0.9039426,0.0039059606,-0.005994602,0.42759427,0.17283109,0.12295798,9.82204,4.2130394,3.2584798,-3.9750912,0
296885694,0.9043167,0.0044031353,-0.005555073,0.42680326,0.37224412,-0.05390659,9.880325,4.0097003,1.934252,-5.1188264,0
296902361,0.9044429,0.0051173875,-0.0060139005,0.4265217,0.48508844,-0.11008065,9.979977,2.750388,-4.2818418,-1.2050904,0
296919028,0.9044337,0.0056615346,-0.006930983,0.42652047,0.45160306,-0.39502332,9.642765,0.36538443,-6.6275687,0.9578191,0
296935695,0.90444916,0.0057679988,-0.0076008085,0.4264745,0.22201093,-0.21352227,9.591252,-1.6333089,-3.8065336,0.6188348,0
296952362,0.9046807,0.005851142,-0.007665672,0.42598125,-0.11884113,0.13599287,9.902557,-0.03596023,0.017435845,-2.819497,0
296969029,0.90484625,0.0064191944,-0.0074632536,0.42562482,0.047427036,0.2599438,10.191274,3.7725654,0.2611919,-1.8111124,0
296985696,0.90500414,0.0073411954,-0.00731818,0.4252768,0.25006148,0.08582594,10.207038,5.807123,-1.1316075,-1.752024,0
297002363,0.905346,0.008212585,-0.007614659,0.4245274,0.4187386,-0.13303693,10.0578375,4.1716113,-3.741926,-4.7631683,0
297019030,0.90590465,0.008786995,-0.0080712065,0.4233139,0.4880282,-0.28915602,9.777853,1.819687,-3.8859217,-8.260675,0
297035697,0.9065662,0.009162222,-0.008612321,0.42187622,0.29062128,0.008640528,9.835046,0.31510678,-3.8401651,-9.939306,0
297052364,0.90713596,0.009971622,-0.009344901,0.42061588,0.13513102,0.27592668,10.079513,2.4823134,-6.2869983,-8.582665,0
297069031,0.90768373,0.011110935,-0.009480356,0.41940078,-0.04075868,0.31617823,10.028805,6.2708693,-3.515409,-8.299006,0
297085698,0.90818596,0.012359364,-0.009281401,0.41828147,0.06940778,0.22049502,9.855098,7.9254622,-1.7393079,-7.6006227,0
297102365,0.90843713,0.013410948,-0.009174355,0.4177057,0.116441175,0.12935533,9.440324,6.487832,-1.7173702,-3.4662437,0
297119032,0.9086231,0.01386202,-0.00923088,0.41728503,0.21048544,-0.11618911,9.226909,2.2832122,-1.0045173,-2.2569785,0
297135699,0.90895104,0.013846521,-0.009462691,0.4165657,0.4821738,-0.07025505,9.570167,-1.1663641,-0.78038067,-4.4825816,0
297152366,0.90931714,0.013992732,-0.010301717,0.41574106,0.7013168,0.04647292,9.981881,-1.9048555,-5.0454473,-5.2030163,0
297169033,0.90957916,0.014424374,-0.011540648,0.4151201,0.50713426,0.13179234,9.933867,-1.2388481,-8.348385,-3.614017,0
297185700,0.9099526,0.014820294,-0.012193395,0.4142682,0.16373499,0.12521955,9.782197,0.1814596,-4.594356,-5.432378,0
297202367,0.9103429,0.015087926,-0.012122645,0.4134023,-0.1931948,0.24480377,9.740524,1.4367638,0.2971522,-5.629915,0
297219034,0.9107812,0.015092051,-0.011361918,0.41245708,0.23364438,0.09821069,9.75548,1.7368293,5.3594384,-6.3123145,0
297235701,0.91127414,0.015074261,-0.010594937,0.4113879,0.6133913,0.0457148,9.885067,1.6021067,5.4520164,-7.2427354,0
297252368,0.91172355,0.015162345,-0.010725025,0.41038445,0.52861774,0.0919096,9.897592,-0.2623125,-0.46369237,-6.622741,0
297269035,0.9122339,0.015434314,-0.011430589,0.4092197,0.5219633,0.17630602,10.042708,-0.751464,-4.6017714,-7.7595997,0
297285702,0.912637,0.016121054,-0.01255773,0.40826008,0.20077185,0.28934604,10.056468,0.69133186,-8.39915,-6.1569753,0
297302369,0.91299707,0.016941372,-0.012889787,0.40741074,-0.3836245,0.41050744,9.795497,3.7753572,-3.7768877,-5.444851,0
297319036,0.9134178,0.017275823,-0.011872079,0.40648356,-0.17289555,0.16526851,9.448501,4.491951,6.0517006,-6.2197523,0
297335703,0.91395813,0.017110933,-0.01020722,0.4053192,0.46149728,0.06865254,9.660189,3.131097,11.492126,-8.078226,0
297352370,0.91449505,0.016898192,-0.009640221,0.4041293,0.77892643,0.08559845,9.870714,-0.2301558,4.7237577,-8.095652,0
297369037,0.9147935,0.016955893,-0.010606462,0.4034267,0.5110928,0.19537544,9.898119,-2.7295587,-5.626189,-4.208705,0
297385704,0.9149632,0.017068652,-0.012045638,0.40299663,0.16027811,0.30369532,9.865828,-3.6601968,-8.730745,-2.0893054,0
297402371,0.9150738,0.017265996,-0.012963269,0.4027082,-0.14718542,0.3921963,9.915385,-1.6645182,-5.6728554,-1.10077,0
297419038,0.91514456,0.017546033,-0.013044589,0.40253273,0.10764997,0.32238728,9.84935,1.1857975,-0.6311866,-0.38565043,0
297435705,0.91549593,0.017530851,-0.012346201,0.40175563,0.5024536,-0.02882964,9.801871,1.3981397,5.043877,-5.016055,0
297452372,0.9158935,0.017640168,-0.012286507,0.40084565,0.82831526,0.013880693,10.099507,0.40115255,0.6679857,-5.914434,0
297469039,0.9163766,0.018062027,-0.013031444,0.39969733,0.63320744,0.083681434,10.154439,0.1215771,-5.2810197,-7.579414,0
297485706,0.9168094,0.01875741,-0.013940291,0.39864075,0.23526007,0.18450913,10.030879,1.4091151,-7.0579915,-6.866421,0
297502373,0.9172853,0.01928936,-0.014514495,0.39749837,0.08910613,0.19974463,9.809234,1.2823962,-4.5079136,-7.5542116,0
297519040,0.91753656,0.019576892,-0.014733906,0.39689615,0.22006498,0.10732709,9.433007,0.7942948,-1.5536281,-3.5545824,0
297535707,0.91778624,0.019353274,-0.014428599,0.3963403,0.5537605,-0.03050576,9.442109,-0.9932094,3.1570408,-3.2767994,0
297552374,0.9182144,0.018943904,-0.014645104,0.39535978,0.9955703,-0.22312017,9.709846,-3.6527426,0.33204943,-6.3557277,0
297569041,0.91861403,0.018895485,-0.016094018,0.3943759,0.86777735,0.12164544,10.137607,-4.7198462,-8.431628,-6.176031,0
297585708,0.91870326,0.019170742,-0.018411769,0.39405325,0.075022906,0.27769208,9.971511,-4.91777,-14.744372,-1.0802164,0
297602375,0.91849345,0.019416576,-0.020263216,0.39443934,-0.056400865,0.40500727,9.881617,-3.7112696,-11.664441,4.1481524,0
297619042,0.91824514,0.019506754,-0.021187559,0.39496434,0.13760965,0.22798716,9.73458,-2.1559494,-5.375376,5.0273833,0
297635709,0.91840935,0.019195784,-0.02052364,0.39463237,0.5414738,0.1485698,9.674372,-0.55577004,5.685655,-1.6562837,0
297652376,0.9187628,0.01890567,-0.020362103,0.39383134,0.76810986,0.18274468,9.656117,-1.878333,2.4216874,-5.06942,0
297669043,0.9190858,0.018452305,-0.02120295,0.39305425,0.4453954,0.17419697,9.519947,-5.6163664,-3.468882,-4.6824503,0
297685710,0.919063,0.01780059,-0.022904474,0.3930417,-0.052532926,0.25259852,9.6599245,-9.040417,-8.3249655,1.2204523,0
297702377,0.91858095,0.01718971,-0.024853554,0.3940763,-0.3168119,0.4379399,9.904582,-9.230467,-9.944793,9.10232,0
297719044,0.9183463,0.016591901,-0.025233483,0.39462397,0.3275133,0.33137712,9.900267,-5.0093193,-0.08680144,5.17066,0
297735711,0.9185604,0.015950281,-0.024418868,0.3942031,0.8482649,0.09037931,9.856737,-2.264637,7.5413604,-2.2915301,0
297752378,0.91879505,0.015390175,-0.02447821,0.3936747,0.72312313,0.045494594,9.776687,-4.1387568,1.793203,-2.9441543,0
297769045,0.91905266,0.014552163,-0.025493901,0.3930403,0.6134614,-0.2848504,9.602012,-8.503035,-3.5030115,-3.5273561,0
297785712,0.9192591,0.013203483,-0.027137581,0.39249462,0.26355046,-0.21617006,9.647944,-13.405633,-6.0910883,-2.677259,0
297802379,0.9192108,0.011770696,-0.028851,0.39253104,-0.28754836,0.35122955,9.829275,-13.9932165,-6.3000503,1.7106799,0
297819046,0.9190333,0.010448183,-0.029190842,0.39295864,0.34055233,0.38511282,9.98218,-9.501893,2.0878391,4.3993993,0
297835713,0.9190278,0.00934471,-0.02849467,0.39305052,0.80202764,-0.06706422,9.902047,-5.399171,8.052269,1.695465,0
297852380,0.91968,0.008190966,-0.028163722,0.39157173,0.9077479,-0.3472019,9.848655,-7.053716,5.9086676,-9.973054,0
297869047,0.92066497,0.0068877717,-0.029350687,0.38918784,0.6760404,-0.3281862,9.887951,-12.278798,-3.2729363,-16.4778,0
297885714,0.92132735,0.005578142,-0.03204485,0.38742465,0.35254398,-0.12226839,9.659914,-16.211617,-12.831604,-11.612412,0
297902381,0.9218622,0.0039565843,-0.034191232,0.38598636,-0.025037017,0.030098313,9.440469,-16.651905,-8.546753,-9.167479,0
297919048,0.92229927,0.0017833691,-0.034099802,0.3849651,0.32067844,0.055869043,9.411068,-14.109256,7.0882254,-6.197652,0
297935715,0.92243135,-0.00032043594,-0.03299644,0.3847488,0.7638697,-0.08375235,9.777392,-10.798759,13.259213,-0.31297466,0
297952382,0.92266846,-0.002148596,-0.03250398,0.38421607,0.9625086,-0.2114547,9.913808,-10.738413,8.68049,-2.6623778,0
297969049,0.9228282,-0.0035383517,-0.03300559,0.383779,0.7740842,-0.14669412,10.028246,-10.563154,1.1982841,-1.9632525,0
297985716,0.92287856,-0.004444786,-0.033821203,0.38357738,0.10448461,0.025953606,10.124872,-8.274478,-2.0995119,-0.29860568,0
298002383,0.92292243,-0.005246771,-0.033918902,0.38345328,0.0075052273,-0.14426017,9.963493,-5.7012973,2.1757157,0.20834011,0
298019050,0.92299104,-0.006335546,-0.033034936,0.3833488,0.42142048,-0.39308718,9.664143,-4.927872,9.165079,0.3689575,0
298035717,0.92313427,-0.007513278,-0.032065894,0.38306463,0.89643157,-0.5551129,9.753784,-5.30566,9.964029,-0.94270146,0
298052384,0.9234251,-0.008490593,-0.0320911,0.38234052,1.2756569,-0.5695435,9.993132,-6.741328,3.181719,-4.220564,0
298069051,0.92355174,-0.009002075,-0.033249676,0.38192388,0.686171,-0.40361962,10.054987,-6.704637,-5.291469,-2.0038738,0
298085718,0.9236116,-0.009400166,-0.03400463,0.38170287,0.18206172,-0.26897725,9.994475,-4.88415,-3.0534568,-0.588042,0
298102385,0.9236528,-0.009672236,-0.0340116,0.3815954,0.07837551,-0.22813764,9.906816,-2.0958745,1.3534712,0.20038737,0
298119052,0.92389035,-0.010115809,-0.03328314,0.38107288,0.25299895,-0.37869668,9.669131,-1.3398004,6.5465612,-2.8604136,0
298135719,0.9243118,-0.01076629,-0.03249137,0.38010016,0.4664683,-0.31601623,9.536245,-2.5785723,7.563836,-6.151494,0
298152386,0.9248187,-0.01165704,-0.03183313,0.37889493,0.72661465,-0.47329733,9.435013,-4.500204,7.379451,-7.8085217,0
298169053,0.92511636,-0.012734324,-0.03225421,0.37809688,0.5690431,-0.5471333,9.565094,-8.425454,0.9245227,-4.7193975,0
298185720,0.9249144,-0.013777171,-0.033328593,0.3784611,0.04924135,-0.38322765,9.813565,-9.690607,-3.5326457,3.9068666,0
298202387,0.9246897,-0.014675552,-0.03353889,0.37895778,-0.108048536,-0.14642747,10.155945,-6.495523,1.5678754,4.856765,0
298219054,0.92446923,-0.01521274,-0.03294627,0.3795261,0.20253904,-0.17774488,10.172391,-2.0908415,5.7242665,5.298839,0
298235721,0.9245246,-0.015580389,-0.031819593,0.37947243,0.52394027,-0.36130387,9.981175,0.2677232,8.803477,0.64457566,0
298252388,0.92476785,-0.015925579,-0.031231996,0.37891346,0.8614564,-0.5998881,9.622686,-1.0866958,5.4135847,-3.1204343,0
298269055,0.9248333,-0.01676897,-0.032048903,0.37864915,0.7621822,-0.8629019,9.21737,-7.869235,-2.2882903,-0.831222,0
298285722,0.92444265,-0.01795056,-0.034252685,0.37935516,0.38793764,-0.86169344,9.546959,-13.468543,-10.438173,6.440878,0
298302389,0.92416024,-0.019220408,-0.036315642,0.37978914,0.41900796,-0.76894367,10.231888,-13.712453,-9.253981,4.4689403,0
298319056,0.92421097,-0.020273443,-0.037279174,0.37951773,0.47990572,-0.70983183,10.577522,-9.595878,-2.6581128,-0.79198337,0
298335723,0.9246686,-0.020892186,-0.03756558,0.37833908,0.8645574,-0.68955266,10.624379,-5.2452264,0.7420449,-7.636313,0
298352390,0.92512804,-0.020491272,-0.03830838,0.37716153,1.1478945,-0.5331415,10.658209,0.05050185,-4.8110394,-7.9640923,0
298369057,0.92577636,-0.019767601,-0.03969167,0.3754625,1.072204,-0.9887256,10.004965,0.3316015,-9.597855,-11.943928,0
298385724,0.9268276,-0.02002366,-0.042204317,0.37257048,0.74500537,-1.3831352,9.104129,-9.090123,-13.98426,-20.465992,0
298402391,0.9272468,-0.020851573,-0.045889016,0.3710427,0.10582808,-0.68426937,8.9455185,-15.426493,-20.358923,-10.14929,0
298419058,0.9273858,-0.022146223,-0.04804909,0.37034634,-0.10431402,-0.39536986,9.500517,-14.290415,-9.656765,-3.7672472,0
298435725,0.92765886,-0.02346528,-0.048214823,0.3695592,0.8409528,-0.47481507,9.819891,-9.377913,3.1784024,-4.3741894,0
298452392,0.928289,-0.025655987,-0.050848175,0.36747244,1.7993479,-1.6093918,8.996566,-21.580881,-10.016911,-13.682136,0
298469059,0.92836165,-0.02785975,-0.05762363,0.36612603,0.9802897,-0.86520296,9.803991,-31.967806,-36.744373,-8.273357,0
298485726,0.92809415,-0.029528832,-0.062851675,0.3658129,-0.03656501,-0.3204645,10.64958,-24.31541,-28.545662,-0.7379184,0
298502393,0.9281204,-0.030559378,-0.0637659,0.36550328,-0.3912577,-0.4375302,10.546709,-9.331042,-2.5001717,-0.85413253,0
298519060,0.9284927,-0.031579483,-0.061544366,0.36485144,0.108120315,-0.9019135,9.712132,-1.4624611,17.705034,-3.2538025,0
298535727,0.9294013,-0.03344381,-0.058722742,0.3628312,1.1127216,-1.4530277,9.11408,-5.8091683,24.176682,-12.847429,0
298552394,0.9300798,-0.035424825,-0.05899068,0.36085588,1.6624271,-1.2023075,9.511415,-14.296118,4.6226697,-12.649016,0
298569061,0.93053585,-0.037089273,-0.06147883,0.3590931,1.2784948,-0.98239905,9.885855,-17.74792,-10.500881,-11.407086,0
298585728,0.93110085,-0.03869362,-0.0633541,0.357128,0.3336037,-0.8304012,9.982092,-15.908189,-6.6300364,-12.839629,0
298602395,0.93136185,-0.039840173,-0.06343977,0.35630536,-0.058060583,-0.5684295,10.153421,-8.166971,3.2653193,-4.50361,0
298619062,0.9314712,-0.04060479,-0.06131798,0.3563045,-0.07366942,-0.68463033,9.923818,0.0024011924,16.172647,1.5685936,0
298635729,0.93149304,-0.041135646,-0.058198303,0.3567095,0.46612132,-0.83410746,9.729779,4.090003,21.83916,4.5624557,0
298652396,0.93146706,-0.041894596,-0.056088652,0.35702658,1.2254456,-1.3507066,9.3742695,0.102995165,15.935243,3.9224672,0
298669063,0.9313205,-0.042797886,-0.0562845,0.35727128,1.3666062,-1.3435574,9.553469,-6.543048,1.499848,3.147411,0
298685730,0.9309176,-0.043681033,-0.05800007,0.35793933,1.0411593,-1.2227741,9.768496,-10.058394,-8.50346,6.0325565,0
298702397,0.93023896,-0.04417559,-0.060218897,0.35927367,0.4735209,-1.0404009,10.143603,-8.626892,-12.99043,10.668168,0
298719064,0.9292598,-0.044093195,-0.061480675,0.36159703,0.37755892,-0.84565187,10.348632,-2.2549708,-8.7198305,17.789127,0
298735731,0.92838293,-0.043494835,-0.060995754,0.36399588,0.4251427,-0.9413612,10.283423,5.4463234,1.1769243,18.328032,0
298752398,0.9277347,-0.04241478,-0.059451208,0.36602625,1.1090652,-1.157476,9.971261,11.086043,6.940583,15.5183525,0
298769065,0.9271587,-0.04122846,-0.058277495,0.3678055,1.4054282,-1.2283088,9.637698,10.749079,4.4110045,13.582859,0
298785732,0.92597705,-0.0399696,-0.05923749,0.37075564,1.0325719,-1.2706714,9.396428,6.113195,-9.947547,21.945604,0
298802399,0.9241399,-0.038865265,-0.060560416,0.37521616,0.36299232,-0.84565556,9.466931,4.6394224,-12.545823,33.194546,0
298819066,0.9216881,-0.037463024,-0.06043705,0.38135967,0.14167081,-0.46119076,9.852838,10.799442,-4.831092,45.736282,0
298835733,0.91862315,-0.035802487,-0.05831353,0.389165,0.32571724,-0.7125586,9.591249,18.212349,6.4830885,58.28417,0
298852400,0.91641295,-0.0349564,-0.055636447,0.39480412,1.0516958,-1.7958419,9.327609,13.890699,13.033884,42.77738,0
298869067,0.9146936,-0.03477154,-0.05509211,0.39886284,1.2220408,-1.3812287,9.682737,3.4496136,1.95918,31.227144,0
298885734,0.9125412,-0.034201942,-0.05632926,0.40364078,0.6554929,-0.7914421,10.2017,1.1529678,-10.634805,36.36712,0
298902401,0.9100477,-0.033097066,-0.057617858,0.40914318,0.44312257,-0.6460301,10.350996,4.568459,-12.745605,41.638855,0
298919068,0.9074685,-0.031689625,-0.058086585,0.4148768,0.5208971,-0.8351787,10.048338,8.839243,-8.553729,43.393288,0
298935735,0.9054209,-0.030471673,-0.058143813,0.41940922,0.68427235,-1.2705319,9.774378,8.466387,-4.9720244,34.547676,0
298952402,0.9031225,-0.02936445,-0.05875513,0.4243297,1.3925654,-1.1039373,9.796546,6.2822084,-8.283652,37.615314,0
298969069,0.90062606,-0.0281944,-0.060980555,0.42937094,1.0993313,-1.2263952,9.689251,1.972069,-18.593107,38.59228,0
298985736,0.89824116,-0.027150786,-0.064037085,0.43396416,0.5257617,-0.69975686,9.942832,-1.4302992,-23.232046,35.380615,0
299002403,0.8955125,-0.025699893,-0.06761238,0.43911907,0.3559618,-0.4981117,10.158683,-0.28020522,-27.907597,39.598564,0
299019070,0.8916617,-0.024277652,-0.069117315,0.44673592,1.0373636,-0.88294333,10.104491,6.7394743,-16.031109,58.52387,0
299035737,0.8867678,-0.022675183,-0.07103261,0.45616168,0.9011734,-0.999364,9.888532,7.2691016,-19.898256,72.66464,0
299052404,0.8830086,-0.02147388,-0.072599426,0.46321073,1.3509591,-1.3435782,9.623637,4.931917,-15.590479,54.86475,0
299069071,0.8794329,-0.020160874,-0.07522104,0.4696097,1.3610158,-1.1592029,9.564586,1.9537513,-22.16192,50.122406,0
299085738,0.87605774,-0.018971307,-0.077549,0.47555146,1.2957251,-0.77944356,9.496594,1.946986,-19.820105,46.813858,0
299102405,0.87142867,-0.017886644,-0.080094755,0.4836085,0.7242801,-0.75933385,9.564193,1.5668114,-21.733208,63.68381,0
299119072,0.8676536,-0.016964588,-0.0813205,0.4901802,0.6032302,-0.94164664,9.625201,4.268291,-12.63121,52.196144,0
299135739,0.864393,-0.015780412,-0.08157138,0.495905,1.2042514,-1.142797,9.832812,8.703704,-7.313059,45.376656,0
299152406,0.8627552,-0.014430406,-0.080944285,0.49889204,1.2280054,-1.2390591,9.634074,11.323294,-1.4534603,23.575632,0
299169073,0.861585,-0.012894372,-0.080846466,0.50096804,1.41096,-0.92582446,9.652085,10.150858,-4.880353,16.411251,0
299185740,0.8605412,-0.011368344,-0.08195223,0.50261676,1.3510684,-1.0410967,9.645106,5.7196746,-11.867107,13.34374,0
299202407,0.85788757,-0.01037728,-0.083781645,0.5068551,0.8599443,-0.55030876,9.55252,1.3871332,-15.409458,34.473682,0
299219074,0.8551466,-0.00974301,-0.08487556,0.51129794,0.6207955,-0.7476354,9.528018,1.9568776,-9.893069,36.242973,0
299235741,0.85327184,-0.009293289,-0.084187634,0.51454204,1.1018593,-0.90906775,9.586865,6.4937572,1.8169695,26.376278,0
299252408,0.8517361,-0.0087381825,-0.0822316,0.5174042,1.5088422,-0.92906463,9.804383,11.398585,9.104205,22.955885,0
299269075,0.8504811,-0.008224902,-0.08100019,0.5196663,1.695865,-1.4821388,9.566069,8.25338,5.204656,18.424547,0
299285742,0.8501667,-0.0075114835,-0.08175289,0.52007383,1.4474965,-1.1705526,9.811705,1.3556355,-6.483011,3.9953449,0
299302409,0.8495226,-0.0062322374,-0.08317104,0.5209177,1.4180532,-0.726109,10.48923,2.5120635,-12.603572,7.37259,0
299319076,0.84778064,-0.0050379876,-0.08377827,0.52366394,1.159964,-0.6732351,9.920024,5.9603496,-8.271855,22.498682,0
299335743,0.8470272,-0.00382452,-0.083038494,0.5250095,1.0788426,-1.3880125,9.45444,10.149187,0.12801878,10.811084,0
299352410,0.8471044,-0.002694304,-0.08209227,0.52504086,1.6262293,-1.1491572,9.736109,9.681685,2.1393332,0.21315536,0
299369077,0.84741217,-0.001461426,-0.08262573,0.5244652,1.7711034,-1.4622762,9.672235,4.6001,-6.7072763,-4.2408876,0
299385744,0.8485059,-0.00015629557,-0.08386472,0.5224984,1.5347677,-1.0234714,9.794092,1.6953773,-10.6174135,-15.228115,0
299402411,0.8497905,0.00154044,-0.08529734,0.5201714,1.2635688,-0.6034221,10.045921,3.077019,-13.04329,-18.241308,0
299419078,0.8509576,0.0035188883,-0.08562014,0.51819724,1.1764793,-0.7139179,9.930505,8.899944,-7.6320696,-15.936065,0
299435745,0.85110605,0.005179955,-0.08542063,0.51797205,1.6735954,-0.9318377,9.817372,9.958088,-4.0029597,-1.8997461,0
299452412,0.8511577,0.006858147,-0.08601372,0.51776946,1.8706528,-1.2014868,9.734821,7.2525144,-8.757792,-1.405459,0
299469079,0.8514633,0.008759318,-0.087219246,0.5170363,2.0311904,-1.0149091,9.955616,6.0521,-13.010032,-5.516198,0
299485746,0.8525731,0.010908873,-0.08840549,0.51496106,1.8246155,-1.056782,9.86753,6.7217894,-13.378087,-16.38232,0
299502413,0.8539395,0.013142257,-0.08991756,0.51237637,0.72460514,-0.37548137,9.57689,5.7309904,-15.466689,-20.304838,0
299519080,0.8561991,0.015013787,-0.09007925,0.5085112,0.86337686,-0.39616707,9.143517,7.4911084,-5.828268,-30.866451,0
299535747,0.858269,0.016620649,-0.08940984,0.5050784,1.8169246,-0.65139395,9.503112,9.125966,-0.08420201,-27.579836,0
299552414,0.8600759,0.018320272,-0.089848384,0.5018578,2.0667846,-0.69021046,9.68978,5.9865155,-7.081391,-25.344698,0
299569081,0.86190194,0.020176116,-0.09133524,0.49837336,2.0686862,-0.68549496,9.740166,3.1279032,-13.84043,-26.935236,0
299585748,0.8635081,0.021963872,-0.09332736,0.4951378,1.9550853,-0.64411825,9.821071,1.180077,-16.704506,-24.59465,0
299602415,0.8646319,0.023485748,-0.095093936,0.4927652,1.2659894,-0.23858567,9.717727,0.9959196,-14.639361,-17.692745,0
299619082,0.86602724,0.024726536,-0.09534316,0.49019894,1.1331441,-0.23749253,9.45438,4.295109,-4.52116,-19.825335,0
299635749,0.86829025,0.025980877,-0.0942585,0.48632568,1.4966377,-0.32603055,9.507162,7.866936,3.7211604,-30.767246,0
299652416,0.87128,0.02747821,-0.09249434,0.4812079,2.0103674,-0.5054192,9.436839,10.653267,7.213562,-40.90546,0
299669083,0.87445676,0.02898492,-0.09096868,0.47561568,2.3888474,-0.50799394,9.609421,9.58344,5.783204,-44.32729,0
299685750,0.87645495,0.030162819,-0.09088384,0.47186556,2.2944703,-0.5473472,9.476532,4.282309,-2.1734622,-28.905033,0
299702417,0.8770722,0.030867802,-0.092311375,0.4703938,1.4146256,-0.1824653,9.407512,-1.7636534,-10.142585,-10.086712,0
299719084,0.8773266,0.031150432,-0.0931485,0.4697353,0.80228764,0.1332151,9.416344,-1.8080008,-5.2743597,-3.8667495,0
299735751,0.8777386,0.031364452,-0.09244326,0.4690903,1.534929,-0.046656195,9.728378,2.7338037,4.353398,-4.579539,0
299752418,0.87845683,0.031854216,-0.09144568,0.46790677,2.1661816,-0.3882355,9.758773,4.9321694,5.3063836,-9.0559635,0
299769085,0.8793403,0.03230934,-0.09152248,0.4661981,2.3168895,-0.61703324,9.429805,0.90031886,-1.0818809,-12.502717,0
299785752,0.88050634,0.032682154,-0.09238029,0.4637959,1.9995375,-0.2831254,9.720082,-2.5992823,-5.5156374,-17.375664,0
299802419,0.88172126,0.033093926,-0.092733055,0.46138167,1.9274888,-0.26307002,9.919132,-0.7714939,-2.5539093,-17.74286,0
299819086,0.8819885,0.03358716,-0.09333488,0.4607135,1.2463727,0.08669559,9.8538065,0.26107666,-4.5292087,-4.1468883,0
299835753,0.8823211,0.03396657,-0.09272214,0.4601726,1.2535639,-0.02591021,9.68138,3.4843326,3.2671368,-3.78849,0
299852420,0.88315964,0.034249045,-0.09138839,0.45880786,2.0001996,-0.4606509,9.637811,4.533817,8.077132,-10.494468,0
299869087,0.88424194,0.03449623,-0.09015162,0.4569452,2.027934,-0.31052202,9.53442,3.6437492,7.635582,-14.241546,0
299885754,0.8852151,0.034690622,-0.089854695,0.45510116,2.213689,-0.4366302,9.453357,0.40770957,2.0246913,-13.530005,0
299902421,0.8860258,0.034462027,-0.09026011,0.45345792,2.0062487,-0.3915028,9.313407,-4.201164,-0.97844404,-11.370739,0
299919088,0.88663393,0.033910725,-0.090827934,0.4521956,1.3806471,-0.12855484,9.404635,-6.388745,-0.99693626,-8.179906,0
299935755,0.8870258,0.033682123,-0.09093604,0.45142204,1.314414,0.28667033,9.973208,-2.6367383,0.7806559,-4.837164,0
299952422,0.88757575,0.03384751,-0.090036385,0.45050788,1.8480144,-0.034951206,9.970584,2.768804,5.769499,-6.6645026,0
299969089,0.8883176,0.034180425,-0.08891979,0.4492402,1.9462621,-0.2981648,9.567807,4.1994157,6.611032,-9.570626,0
299985756,0.8894659,0.03428693,-0.087716065,0.44719216,1.983,-0.4298388,9.366631,2.513281,7.907501,-15.474441,0
300002423,0.89058477,0.033802737,-0.08728603,0.44508126,1.9485615,-0.47507888,9.233919,-3.508508,4.9599485,-15.229273,0
300019090,0.89142376,0.032578565,-0.08762919,0.44342253,1.8183609,-0.6220099,9.1059265,-10.068732,2.4274967,-10.980775,0
300035757,0.8921537,0.030588498,-0.08789594,0.44204152,1.1904503,-0.26368052,9.16375,-14.337491,5.227346,-8.501697,0
300052424,0.8930891,0.028584398,-0.08771168,0.44031984,1.5347462,0.0057529304,9.9688,-13.301908,8.088481,-11.302578,0
300069091,0.89387274,0.027359461,-0.087556146,0.4388361,1.9225523,-0.024225295,10.269714,-8.431398,5.5081873,-9.845245,0
300085758,0.89548033,0.026365759,-0.08673155,0.4357725,1.7300681,-0.79564774,9.713615,-6.097936,9.121196,-22.30643,0
300102425,0.8988752,0.024135407,-0.08649106,0.42890623,1.550093,-1.3059523,9.084626,-18.052773,9.606635,-50.230286,0
300119092,0.9017303,0.020826092,-0.08745065,0.4228487,1.5500294,-0.39205658,9.241251,-27.688099,5.185064,-42.800037,0
300135759,0.9035996,0.016934,-0.088291205,0.4188385,1.1635494,-0.11344642,9.022649,-29.582676,7.317444,-26.908209,0
300152426,0.90532213,0.013405912,-0.08764164,0.41536862,1.3144383,0.29178548,10.176456,-22.685373,15.500256,-23.522991,0
300169093,0.9064633,0.010880417,-0.08675083,0.41313466,1.7453532,-0.16309206,10.316936,-14.958132,13.901777,-14.7963085,0
300185760,0.9074343,0.008628901,-0.085669674,0.41127765,1.3988402,-0.37111992,9.872066,-12.472816,14.23653,-12.140888,0
300202427,0.9084128,0.006031983,-0.08481632,0.409336,1.3268315,-0.4655036,9.734596,-15.322304,13.791167,-12.473461,0
300219094,0.9094204,0.0032230339,-0.08402818,0.40728816,1.146875,-0.4590453,9.732741,-16.893293,13.992962,-13.09218,0
300235761,0.91089004,7.211921e-05,-0.082992405,0.4042177,0.92559403,-0.7300353,9.469077,-18.939102,16.742846,-20.58805,0
300252428,0.91267186,-0.0027061973,-0.08204654,0.40036407,1.0948848,-0.22666146,9.957859,-17.302336,15.321576,-26.572792,0
300269095,0.9140646,-0.0046551544,-0.080788404,0.3974136,1.2661607,-0.066085696,10.270358,-10.736718,14.76126,-20.297104,0
300285762,0.9150652,-0.0061418843,-0.080606624,0.39512092,1.2109035,-0.42749178,9.942725,-10.420541,6.494794,-15.382638,0
300302429,0.915715,-0.0077275974,-0.081326075,0.39343658,1.4502035,-0.8183278,9.659717,-13.169551,0.8733875,-10.585816,0
300319096,0.91621345,-0.009879503,-0.08320061,0.39183298,1.02428,-1.1946139,9.422529,-19.82156,-4.956168,-9.412875,0
300335763,0.9172803,-0.013181291,-0.08265724,0.389347,0.78886414,-0.8173488,8.76339,-21.016819,13.757485,-15.679922,0
300352430,0.9181209,-0.01663472,-0.08146978,0.38747892,1.0413874,-0.57537836,9.794956,-19.9183,18.04057,-11.034188,0
300369097,0.918944,-0.019436939,-0.080098145,0.38567936,1.2782364,-0.5208856,10.261465,-15.280701,17.450249,-10.89718,0
300385764,0.9200304,-0.02163772,-0.07833125,0.3833281,1.2148036,-0.75489396,10.088327,-10.701742,18.57145,-15.360049,0
300402431,0.92075706,-0.023650425,-0.07728746,0.38167253,1.0198448,-0.5126448,9.914576,-11.096844,13.204317,-10.220722,0
300419098,0.9212874,-0.02569657,-0.07602226,0.38051292,1.1038308,-0.99112517,9.571803,-10.496416,14.508632,-6.511895,0
300435765,0.9216035,-0.02815059,-0.07487646,0.37980005,0.9188592,-0.9969651,9.318697,-13.19668,14.628401,-2.9297,0
300452432,0.9217734,-0.030690858,-0.073823154,0.3793971,0.6336923,-0.9801957,9.663519,-13.853416,14.132166,-0.55719227,0
300469099,0.9222628,-0.033071183,-0.072149225,0.37832844,0.9728199,-0.8119464,10.201603,-11.491452,17.950327,-5.56077,0
300485766,0.92265505,-0.034701392,-0.07062855,0.37751168,1.1673526,-0.7377471,10.547221,-7.0311275,14.921979,-4.118283,0
300502433,0.9228746,-0.035858277,-0.069741994,0.3770315,1.2640066,-1.0809852,10.01684,-5.5525794,9.506753,-1.916074,0
300519100,0.92290246,-0.036669854,-0.06892877,0.37703484,1.1053631,-1.0212461,9.877206,-3.3671353,7.935577,1.4659109,0
300535767,0.92285454,-0.037283037,-0.067867555,0.37728426,0.9174213,-1.0436791,9.827269,-1.3681667,8.897015,3.1919513,0
300552434,0.9227262,-0.03779407,-0.06660997,0.3777715,0.76232105,-1.0139462,9.678317,-0.120494984,9.779541,4.912422,0
300569101,0.9223792,-0.038410604,-0.065601036,0.37873232,0.78152686,-1.0288038,9.620067,-1.2756922,8.252665,8.468644,0
300585768,0.92211884,-0.0393729,-0.064938284,0.37938097,0.8533619,-1.2312865,9.413839,-4.48773,7.079218,6.327242,0
300602435,0.922123,-0.04046928,-0.06424197,0.37937376,1.0993364,-1.1753244,9.656105,-5.4715285,7.9374886,1.5489478,0
300619102,0.9219592,-0.041182786,-0.06387751,0.37975666,1.0014659,-1.0028038,9.96697,-3.7840972,4.6522593,4.1985307,0
300635769,0.9215086,-0.04135604,-0.06369291,0.38086054,0.7806749,-0.9477627,10.115096,-0.59392023,1.771727,9.2290325,0
300652436,0.92084867,-0.04108154,-0.06329914,0.38254872,0.63383245,-0.94005173,10.148777,2.9865255,1.6667538,13.343192,0
300669103,0.92005247,-0.04051176,-0.062347703,0.38467512,0.5736262,-1.0183444,10.084114,6.4746866,4.2375298,16.504824,0
300685770,0.91943145,-0.03993023,-0.060967952,0.3864381,0.75114083,-1.2567456,9.786306,7.57456,7.091888,13.856938,0
300702437,0.9191065,-0.03942149,-0.06046901,0.3873406,1.3478671,-1.431621,9.694572,4.4947424,2.0778117,7.4194193,0
300719104,0.9188328,-0.038675673,-0.06075005,0.38802093,1.0580491,-1.1140141,9.865753,3.837545,-3.4004447,5.570193,0
300735771,0.91841996,-0.037709493,-0.060878552,0.3890717,0.70503134,-0.883836,9.974695,5.754221,-3.1809442,8.22919,0
300752438,0.9173539,-0.036579568,-0.06051496,0.39174193,0.36134505,-0.8272414,9.758052,8.612701,-1.204849,20.261288,0
300769105,0.9156659,-0.03507648,-0.059730038,0.3959269,0.3417624,-0.5860892,10.012193,12.574548,-0.19262108,31.440376,0
300785772,0.9133936,-0.03269662,-0.057939634,0.4016047,0.69263333,-0.51056165,10.307107,21.302925,3.150419,42.31287,0
300802439,0.91131574,-0.02989582,-0.0556062,0.40683892,0.9444095,-0.99668235,10.047769,25.312017,5.5754733,38.944176,0
300819106,0.90964323,-0.027200306,-0.053623892,0.41101587,1.1827763,-1.1980336,9.869812,23.34914,4.042518,31.15405,0
300835773,0.90774775,-0.024501534,-0.053511463,0.41536796,1.1117303,-0.9558151,9.848005,18.108479,-7.775618,32.52931,0
300852440,0.90533847,-0.021758383,-0.054159727,0.42066097,0.3651932,-0.71194625,9.824614,16.472597,-12.996911,39.724804,0
300869107,0.9031989,-0.019161532,-0.053984664,0.42538264,0.0737652,-0.780918,9.705899,17.77053,-7.2634315,35.566,0
300885774,0.9017737,-0.016673446,-0.052754376,0.428653,0.64935523,-0.7205365,9.902866,19.736519,0.0632956,24.643785,0
300902441,0.90063167,-0.013665667,-0.051647626,0.43128675,0.99889344,-0.65485686,10.169162,22.396091,-2.0585887,19.659813,0
300919108,0.8996838,-0.010292523,-0.05124322,0.4334023,1.0746367,-0.65429324,10.113133,22.409946,-7.3731475,15.679553,0
300935775,0.8992563,-0.007141057,-0.05200276,0.43426153,1.2398341,-1.2431223,9.811833,17.164463,-13.639773,6.3533244,0
300952442,0.8992917,-0.004306864,-0.05329923,0.4340684,1.3248564,-0.89394593,9.906909,13.247018,-15.794596,-1.4471965,0
300969109,0.8990628,-0.001576863,-0.05465687,0.4343919,1.1650455,-0.7417968,9.922468,12.602049,-15.973459,2.570885,0
300985776,0.8989775,0.0013211045,-0.055481732,0.4344648,1.1346949,-0.7000871,9.825005,15.139106,-13.1248255,0.536606,0
301002443,0.89909697,0.0042699953,-0.055654757,0.4341764,1.3083484,-0.64849967,9.80549,17.261568,-9.173022,-2.3331668,0
301019110,0.89910483,0.0076848287,-0.05600754,0.4340677,1.6464158,-0.49079353,10.104573,19.677586,-11.712273,-1.0626984,0
301035777,0.89870113,0.011747065,-0.05717959,0.43465963,1.7262206,-0.5199818,10.2365885,21.526377,-18.829668,4.2904143,0
301052444,0.89867157,0.015891798,-0.058736984,0.4343814,0.9789103,-0.5538177,9.965805,20.512325,-21.379778,-2.206259,0
301069111,0.8992731,0.019230638,-0.059692822,0.43286833,0.9614919,-0.54750127,9.364429,16.76234,-15.136321,-11.45943,0
301085778,0.8994621,0.02184972,-0.061129313,0.43215021,0.81164354,-0.38136718,9.018971,11.262887,-16.030321,-4.9588175,0
301102445,0.8993691,0.023758296,-0.06295776,0.4319805,0.86938906,-0.29091597,9.021356,5.9775424,-16.37972,-0.37203765,0
301119112,0.89959216,0.025138093,-0.064493634,0.43121094,1.3036951,-0.24352305,9.364703,3.2657943,-12.961405,-4.8380246,0
301135779,0.900137,0.02628907,-0.06553682,0.42984575,1.3921287,-0.17578354,9.424745,2.9916098,-9.196028,-9.46003,0
301152446,0.9009759,0.026867725,-0.06626007,0.42793724,1.4533602,-0.2722626,9.268878,0.097398765,-5.490099,-13.491614,0
301169113,0.9017689,0.027068075,-0.06753338,0.42605135,1.2213786,-0.18221477,9.284723,-3.8454554,-7.8010077,-12.94276,0
301185780,0.90235144,0.026663225,-0.06806709,0.42475638,0.9035498,-0.026834792,9.254869,-5.117394,-1.4306619,-8.518698,0
301202447,0.9028676,0.026019895,-0.06791891,0.42372182,1.1756765,-0.05565477,9.48978,-4.4715943,3.5125587,-6.723067,0
301219114,0.90322495,0.025479853,-0.0678808,0.4229989,1.4138842,0.0034447005,9.7340145,-3.9770515,2.5097444,-4.3535194,0
301235781,0.90348244,0.025156148,-0.06867998,0.42233884,1.7509376,-0.12942234,9.841225,-5.0218835,-3.3544452,-3.6275148,0
301252448,0.90379024,0.024856688,-0.07007182,0.421468,1.6256111,-0.22788434,9.797295,-6.700503,-7.118746,-4.9920964,0
301269115,0.90396106,0.024403254,-0.071508706,0.4208864,1.0811514,-0.09634817,9.716514,-7.6249423,-6.96886,-2.7159336,0
301285782,0.9038034,0.023644738,-0.072239436,0.42114368,0.6755412,-0.03225187,9.491622,-7.01003,-1.7182922,3.4808881,0
301302449,0.90358454,0.022495098,-0.07170816,0.42176664,1.2174264,-0.08152356,9.463763,-5.594815,7.2846975,5.9183097,0
301319116,0.90348846,0.021280197,-0.07040638,0.42225468,1.4790446,-0.32567695,9.603466,-3.8516142,12.300204,4.63788,0
301335783,0.9038412,0.020317607,-0.06960318,0.42167976,1.5510043,-0.20561892,10.071098,-4.3118615,8.532292,-3.3174605,0
301352450,0.90428495,0.019645322,-0.06980124,0.42072648,1.5287431,-0.13270566,9.998507,-5.6044827,1.4595208,-5.932812,0
301369117,0.9046844,0.01880322,-0.07026381,0.4198279,1.3832722,-0.35157293,9.628628,-7.3931966,0.2925163,-5.3464346,0
301385784,0.9046327,0.017528772,-0.07088537,0.41989008,1.1660869,-0.38710776,9.45488,-10.018666,0.45766714,2.1617062,0
301402451,0.9040562,0.016102567,-0.07145842,0.42109016,1.0959095,-0.26471776,9.363468,-10.204531,1.078763,10.820727,0
301419118,0.90359837,0.014144243,-0.07052827,0.4222985,1.3754371,-0.39198068,9.070663,-9.16923,12.022046,10.62372,0
301435785,0.9028956,0.011541294,-0.068243004,0.4242514,1.1785159,-0.43629768,8.847049,-8.854566,22.266123,16.141687,0
301452452,0.9026479,0.009156478,-0.06559527,0.42525342,1.0275174,-0.18498167,9.968148,-6.925383,24.017973,8.77992,0
301469119,0.90272033,0.007573776,-0.06377058,0.4254081,1.3150467,-0.08992161,10.370957,-4.756283,16.655848,2.2760298,0
301485786,0.90304965,0.0065180575,-0.061548896,0.42505383,1.1014447,-0.18224788,9.997808,-0.5612644,17.664515,-1.8866204,0
301502453,0.90316576,0.005475648,-0.059584107,0.42510197,0.7398742,-0.18541656,9.72889,-1.049699,15.958485,1.2411603,0
301519120,0.90327805,0.004030603,-0.057046775,0.42522734,0.8207627,-0.49872804,9.567345,-1.8449113,20.691578,1.8753202,0
301535787,0.9033435,0.00197259,-0.05399213,0.42550173,1.0157619,-0.5748662,9.320904,-4.0793447,25.68178,3.1643605,0
301552454,0.9030569,-0.0003321314,-0.050343346,0.42656037,0.7509249,-0.3399052,9.501036,-3.5773766,29.973804,9.148125,0
301569121,0.9027858,-0.0022280356,-0.046404213,0.42757413,0.8597303,-0.29667854,10.47536,-0.20325027,30.583061,8.6829605,0
301585788,0.9022629,-0.0030303595,-0.044107065,0.42891383,0.8539876,0.13868934,10.95383,1.8577363,17.090986,11.071508,0
301602455,0.9017194,-0.003225147,-0.042243537,0.43024105,0.46290976,-0.13369814,10.406619,4.3428097,12.603528,10.86231,0
301619122,0.901496,-0.0036155547,-0.040551655,0.43086842,0.3623144,-0.47682926,9.838422,2.4258761,12.2262745,5.6305137,0
301635789,0.9014334,-0.0043970826,-0.037858903,0.43123704,0.553591,-0.47750053,9.532301,2.8985744,19.639507,3.6834126,0
301652456,0.90147275,-0.005542846,-0.034404196,0.43143108,0.5037098,-0.52332944,9.537634,2.8579545,25.473644,2.418094,0
301669123,0.9015442,-0.0064033126,-0.030066302,0.43159384,0.020847403,-0.15869482,9.792924,7.239947,30.110052,2.0948122,0
301685790,0.90181464,-0.0071630753,-0.025087893,0.4313351,-0.2377355,0.12957159,10.181572,9.68631,33.84074,-1.1014917,0
301702457,0.9017565,-0.0075231316,-0.02089288,0.43167374,0.3486361,-0.11581601,9.997548,9.927826,27.711252,3.4693725,0
301719124,0.902004,-0.007810878,-0.016771888,0.4313314,0.3577149,-0.42105636,9.794783,10.074215,27.116928,-1.6731417,0
301735791,0.9029032,-0.008500805,-0.012870134,0.42956725,0.36393517,-0.65304625,9.486005,6.801122,27.10166,-12.389453,0
301752458,0.90403104,-0.00964469,-0.009423964,0.42725417,0.27509686,-0.5000307,9.463912,2.602739,25.66673,-16.458546,0
301769125,0.9052343,-0.010435723,-0.0037036,0.42476857,-0.23200174,-0.0025558583,9.873589,11.470669,38.78219,-17.62526,0
301785792,0.9063298,-0.010742517,0.0031584587,0.42242283,-0.6500963,0.34798688,10.351844,17.814453,44.460842,-16.370235,0
301802459,0.90639,-0.011268549,0.00679461,0.42223725,0.09053214,-0.18229076,10.259068,6.955318,24.857946,-0.14599274,0
301819126,0.9060913,-0.011800868,0.0075180475,0.42285082,-0.09287952,-0.35740578,10.1214,-1.6045464,6.6799407,5.6497855,0
301835793,0.90598136,-0.0123624,0.00672849,0.4230836,-0.23812105,-0.20030864,10.0283575,-6.150122,-2.639248,2.6044211,0
301852460,0.90586394,-0.012521679,0.0055717244,0.4233471,-0.30048156,-0.1234632,10.050921,-4.714633,-6.0988717,2.8050845,0
301869127,0.90625954,-0.012650203,0.004047058,0.42251334,-0.36334708,-0.3381276,9.623931,-5.507809,-8.404953,-5.5519404,0
301885794,0.9065792,-0.013170693,0.0018080405,0.42182654,-0.43568483,0.010005083,9.492218,-10.035641,-11.728168,-4.4887958,0
301902461,0.9063996,-0.014042942,-0.00128263,0.42218593,-0.14644708,-0.31145015,9.423694,-14.756564,-16.105164,3.3979845,0
301919128,0.90622306,-0.014908955,-0.005129739,0.42250592,0.026485967,-0.25150484,9.913153,-16.913298,-20.833393,3.0703874,0
301935795,0.906427,-0.015521519,-0.009356779,0.42197353,0.24925172,-0.5042845,10.043531,-16.428905,-23.836002,-3.3925912,0
301952462,0.9070515,-0.01598664,-0.014287034,0.42047346,-0.13046151,-0.3641319,9.920689,-17.567493,-28.51557,-10.728936,0
301969129,0.90770566,-0.016112274,-0.018877046,0.41887292,-0.22913998,-0.1961455,10.150588,-14.473239,-27.361395,-11.436357,0
301985796,0.907759,-0.015771726,-0.023081623,0.4185597,-0.15557024,0.03373537,10.040439,-10.35349,-26.519415,-1.6897514,0
302002463,0.9074415,-0.015496713,-0.025054548,0.4191445,0.27199894,-0.4131662,9.369557,-4.2385464,-12.559095,5.233236,0
302019130,0.9075934,-0.015973479,-0.025505632,0.41877028,0.619821,-0.80735797,9.47902,-4.658579,-0.71481204,-1.8109717,0
302035797,0.9077073,-0.01624922,-0.028082838,0.41834778,0.8918011,-0.79793465,9.943452,-9.53791,-14.561745,-2.2711444,0
302052464,0.9080345,-0.01606574,-0.031190246,0.41742402,0.4719352,-0.3491629,10.405631,-8.269637,-19.093721,-6.160888,0
302069131,0.9084887,-0.015451728,-0.032343093,0.41636932,0.11907786,-0.37079552,10.331969,0.013517108,-8.085126,-7.2203126,0
302085798,0.9084917,-0.015144982,-0.031325765,0.41645235,0.06413708,-0.39023212,9.798767,4.5115943,6.1283193,1.4789095,0
302102465,0.90843016,-0.014973823,-0.029566789,0.4167212,0.2461621,-0.50661486,9.605454,5.8215327,11.115477,2.9292684,0
302119132,0.90850437,-0.015294408,-0.027553782,0.41668534,0.48973387,-0.7983815,9.312501,3.430036,14.169923,0.76364964,0
302135799,0.909115,-0.016419683,-0.026161222,0.41539866,0.77181345,-1.0061549,9.383457,-3.554021,12.833042,-8.498146,0
302152466,0.9093182,-0.017337969,-0.027011042,0.41486204,0.61839956,-0.29408792,10.219678,-8.57507,-1.9316337,-2.9368298,0
302169133,0.9091889,-0.017404895,-0.02771617,0.41509566,0.07452532,-0.13011527,10.499198,-2.7364867,-3.608663,2.6848195,0
302185800,0.909428,-0.01699278,-0.026661659,0.41465783,-0.06513676,-0.24285412,10.24179,5.1956077,6.1739607,-2.443657,0
302202467,0.91006345,-0.016218038,-0.024963368,0.41339853,0.18933539,-0.60479844,10.228051,9.193796,9.333834,-8.700553,0
302219134,0.91090816,-0.015372265,-0.02340295,0.4116583,0.8888716,-0.82659256,10.394737,9.187303,8.358732,-12.333552,0
302235801,0.9113119,-0.014494125,-0.023590133,0.41078457,0.7691418,-0.64423925,10.299891,4.5369773,-2.8397317,-5.847329,0
302252468,0.9115592,-0.013545819,-0.024457002,0.41021731,0.3216795,-0.5326545,10.187817,3.0912552,-7.352077,-3.565507,0
302269135,0.91166705,-0.012212472,-0.025275944,0.4099699,-0.19635195,-0.13294211,10.21515,5.6805854,-8.190918,-1.2273226,0
302285802,0.91198736,-0.010491673,-0.025152031,0.40931237,0.012483148,-0.18302584,10.1268015,10.712984,-3.3022978,-4.3841023,0
302302469,0.91248536,-0.008438878,-0.024974532,0.4082594,0.32521605,-0.2093707,9.930205,12.889838,-3.841652,-7.4184427,0
302319136,0.91302156,-0.006595256,-0.025048003,0.40708846,0.6733421,-0.45815116,9.533445,10.854882,-4.8156137,-8.242404,0
302335803,0.9136814,-0.005103575,-0.025913484,0.4055722,0.70217276,-0.619816,9.407049,6.3752427,-8.765057,-10.73246,0
302352470,0.91429085,-0.0037548502,-0.027345488,0.40411708,0.61010396,-0.42493427,9.783765,3.90692,-11.936093,-10.202354,0
302369137,0.9151761,-0.0023097002,-0.027936304,0.4020784,0.5137774,-0.39352435,10.004302,6.7478848,-6.8490353,-14.633551,0
302385804,0.916191,-0.0008118921,-0.02735513,0.39980683,0.25470594,-0.15310016,9.80754,10.27654,0.40847826,-16.448997,0
302402471,0.91677344,0.0003092609,-0.026041958,0.39855775,0.445177,-0.38486797,9.340624,10.105979,5.9674883,-8.74349,0
302419138,0.91725075,0.0010019285,-0.024735074,0.39754042,0.493939,-0.40598914,9.197888,7.429973,7.0836887,-6.9176235,0
302435805,0.9176348,0.001242766,-0.024497349,0.3966677,0.55182505,-0.34093294,9.252531,1.6837083,1.5612543,-5.666541,0
302452472,0.91787446,0.0012595523,-0.025210967,0.39606768,0.5639917,-0.24276185,9.538655,-2.2770462,-3.8514464,-3.5067759,0
302469139,0.9180589,0.0011514217,-0.025861064,0.39559853,0.2002403,-0.023385001,9.791901,-2.8691604,-3.118756,-2.5099933,0
302485806,0.9182774,0.0011004101,-0.02540799,0.39512032,-0.13452305,0.13714962,9.899184,0.49005428,3.6947286,-2.678538,0
302502473,0.9187388,0.0012341553,-0.023220783,0.3941808,0.004800819,0.12616761,9.932234,6.284665,14.179789,-6.296376,0
302519140,0.9193824,0.0013188,-0.020728003,0.39281675,0.33643818,-0.15323257,9.75251,6.733108,16.268114,-9.467338,0
302535807,0.9196704,0.0013089516,-0.0207383,0.39214107,0.74683,-0.24942073,9.76187,-0.52301127,0.65667754,-4.11824,0
302552474,0.91966105,0.0013452567,-0.02194985,0.39209718,0.43893367,-0.11788958,9.948361,-3.3769455,-7.0997267,0.68173975,0
302569141,0.9197499,0.001370885,-0.02222895,0.3918728,0.20066069,-0.07977196,10.055386,-0.95895225,-1.1618048,-0.73049986,0
302585808,0.91988206,0.0014768065,-0.021616114,0.391596,0.29217258,-0.10237714,10.000957,1.9434723,4.2680807,-1.1998653,0
302602475,0.9200163,0.0015520918,-0.021008287,0.39131373,0.3835586,-0.34412974,9.717804,1.7353693,4.3191023,-1.2357488,0
302619142,0.92012703,0.001615806,-0.02047783,0.39108106,0.5151203,-0.18948165,9.872382,1.4616334,3.8580217,-0.8561429,0
302635809,0.9199662,0.0018559432,-0.02078151,0.39144227,0.5910081,-0.1393183,9.962676,0.42157862,-1.9247047,3.6155846,0
302652476,0.9196927,0.0022397118,-0.021807568,0.39202705,0.49942666,-0.13693555,9.971832,-0.5807169,-6.893455,5.3216996,0
302669143,0.91963685,0.002579448,-0.02246598,0.39211866,0.22762972,-0.14032161,9.907174,0.054523043,-4.424825,1.6169876,0
302685810,0.9194681,0.0027675538,-0.022498023,0.39251104,-0.145691,-0.043247845,9.723347,0.8329828,-0.067796834,3.8375192,0
302702477,0.9191926,0.0027843537,-0.02193743,0.39318714,0.15102975,-0.016708022,9.829769,1.3951687,4.1292343,5.9321127,0
302719144,0.9187872,0.0029898928,-0.021597117,0.39415088,0.45266777,-0.04762428,9.965774,2.0382528,2.2127266,8.078049,0
302735811,0.91844404,0.003271381,-0.021839708,0.39493418,0.56349087,-0.20959577,9.913653,0.9102052,-1.6697052,6.769983,0
302752478,0.91831344,0.0034895083,-0.022089738,0.3952222,0.58828485,-0.20781116,9.88827,0.41093653,-1.5237508,3.0747724,0
302769145,0.91827214,0.0036675322,-0.022242773,0.3953076,0.39476907,-0.24210098,9.809788,0.38838455,-0.7933789,1.5575403,0
302785812,0.9182122,0.0038656206,-0.022297135,0.395442,0.3040692,0.041512728,9.841075,0.7913812,-0.22663395,1.9114244,0
302802479,0.91806996,0.0040582544,-0.022200225,0.3957756,0.24665622,-0.052982308,9.646689,1.2009091,0.73583376,3.3904493,0
302819146,0.9180422,0.0041887215,-0.021738548,0.39586428,0.2571053,-0.05935278,9.575594,1.7603675,3.217948,1.5322479,0
302835813,0.9180693,0.0042407294,-0.02126429,0.39582667,0.520498,-0.25693583,9.625496,1.2789125,3.5154004,0.5957194,0
302852480,0.91803896,0.004392747,-0.021522015,0.3958812,0.5939647,-0.15019852,9.940089,-0.06656741,-1.382663,1.3405879,0
302869147,0.9179935,0.00457313,-0.021877874,0.39596516,0.47427648,-0.16000396,9.98573,-0.14978306,-2.0803914,1.5667737,0
302885814,0.9180819,0.004869009,-0.021949254,0.39575282,0.41189227,-0.1603534,10.038278,1.3049222,-0.5884518,-0.693848,0
302902481,0.91830075,0.005191424,-0.021624414,0.39525846,0.3941088,-0.13670723,9.925286,2.5037248,1.8505751,-2.8470182,0
302919148,0.9184332,0.0055179032,-0.021301279,0.39496377,0.32463348,-0.11159576,9.780793,2.5576265,1.8231822,-1.3515308,0
302935815,0.9183368,0.005807349,-0.0215597,0.3951698,0.3979372,-0.075040944,9.710987,0.8266436,-1.7632552,2.4585695,0
302952482,0.91822654,0.006010079,-0.021958014,0.39540106,0.41741446,-0.054331448,9.743016,-0.096687935,-2.4118326,2.6744714,0
302969149,0.9182208,0.006101878,-0.021954613,0.39541283,0.39504611,-0.109156124,9.687759,0.25764453,0.4325409,1.0053176,0
302985816,0.918383,0.0061482633,-0.021754341,0.39504662,0.36431277,-0.00422297,9.839211,0.44217122,1.8082119,-1.8397089,0
303002483,0.91850394,0.006282582,-0.021360701,0.39478442,0.2917307,0.017692093,9.89998,1.539829,2.7886786,-1.0921383,0
303019150,0.9185051,0.0065559163,-0.0209556,0.39479935,0.37940443,0.021087164,9.948348,2.4946454,2.4780095,0.9632618,0
303035817,0.918337,0.0068440605,-0.020985985,0.39518344,0.46837354,-0.08417671,9.858358,1.4668331,-0.3200179,3.770235,0
303052484,0.91804284,0.007071529,-0.021471033,0.39583626,0.4723032,-0.08116785,9.838945,-0.106830575,-3.0313911,5.839254,0
303069151,0.9177565,0.0073291603,-0.021961628,0.3964681,0.47869828,-0.0614359,9.869794,0.06488338,-3.14816,5.682057,0
303085818,0.9175929,0.0076173753,-0.022195281,0.39682838,0.29822862,-0.11768426,9.740007,0.91121674,-1.605417,3.615893,0
303102485,0.91776186,0.007663092,-0.021696817,0.39646423,0.316641,-0.013885075,9.729619,1.2509052,3.687723,-1.8629783,0
303119152,0.9178357,0.007707344,-0.02121465,0.39631817,0.3857268,-0.0910314,9.728529,1.2348074,3.586117,-0.22598083,0
303135819,0.9179229,0.007728425,-0.020656953,0.3961458,0.4481926,-0.03480335,9.773215,1.2898365,4.126456,-0.42906398,0
303152486,0.9179363,0.0075875614,-0.020649418,0.39611763,0.5281901,-0.15024097,9.763015,-1.206179,1.0925931,0.7342329,0
303169153,0.9177919,0.0075671393,-0.021375576,0.39641422,0.43228677,0.029113332,9.954537,-2.3897161,-3.87118,3.2360942,0
303185820,0.91756827,0.007692738,-0.021908963,0.3968997,0.24481302,0.092834674,9.972042,-0.91100544,-3.0545835,4.6117783,0
303202487,0.9175131,0.007894429,-0.02151203,0.39704543,0.21765201,0.012147371,9.953501,2.0474346,2.6140773,1.9470842,0
303219154,0.91756576,0.008083107,-0.02083779,0.39695546,0.42300412,-0.058337368,9.920547,2.681592,4.40201,0.15258126,0
303235821,0.9176093,0.008289041,-0.02042441,0.3968724,0.5069921,-0.11771051,9.851889,2.0801675,2.7082937,0.23327407,0
303252488,0.91766703,0.008444251,-0.020256335,0.396744,0.44288647,-0.09901045,9.758415,1.0836285,1.2985704,-0.07037089,0
303269155,0.91772664,0.008576628,-0.020159809,0.39660844,0.4025948,-0.015037085,9.787736,0.743479,0.9094749,-0.113745995,0
303285822,0.9176334,0.008597377,-0.020251298,0.39681873,0.26638886,0.033001434,9.750733,-0.41665456,0.026694834,2.5127146,0
303302489,0.917387,0.008695166,-0.020624068,0.3973666,0.27107996,0.08037715,9.828442,-0.6418927,-1.9595894,5.066736,0
303319156,0.9173136,0.008720685,-0.020495424,0.39754254,0.38862032,-0.08096528,9.866676,0.20891637,1.4025962,2.228273,0
303335823,0.9174042,0.0088107865,-0.020239323,0.39734426,0.5734885,-0.08513737,10.000063,0.9020857,2.0306325,-0.59754425,0
303352490,0.91751385,0.008888985,-0.020394692,0.39708152,0.5111822,-0.11175712,9.913607,-0.30699378,-0.53324354,-1.0306678,0
303369157,0.91765857,0.009015474,-0.020581152,0.39673465,0.41611597,-0.044441964,9.903008,-0.10111893,-0.8613679,-1.6611115,0
303385824,0.9176008,0.009220758,-0.02111329,0.39683506,0.35620522,0.04465375,9.89737,-0.47106883,-3.2580378,1.7240741,0
303402491,0.9174807,0.009406278,-0.021289473,0.39709902,0.19467254,0.008634753,9.732537,0.4030991,-0.9572363,2.9055753,0
303419158,0.91742015,0.009501515,-0.021001205,0.3972521,0.35817394,-0.029658185,9.709806,1.0816563,2.2203584,2.0274434,0
303435825,0.9174913,0.009504861,-0.020382514,0.39711967,0.46709242,-0.06485245,9.757567,1.3545982,4.5559173,-0.14226575,0
303452492,0.9176825,0.009626199,-0.01982513,0.39670324,0.5426049,0.040952854,9.928521,1.8839103,3.8453436,-2.273934,0
303469159,0.9176978,0.009756938,-0.020021958,0.3966546,0.5140792,-0.03856538,9.804003,-0.051955357,-0.93847495,0.57585675,0
303485826,0.91756433,0.009779074,-0.02077596,0.3969239,0.34513864,0.027325377,9.778066,-2.2028334,-4.1569033,3.0399013,0
303502493,0.9174011,0.009830547,-0.021194976,0.39727783,0.2518182,0.027487522,9.801903,-1.0896153,-2.1220763,3.6280065,0
303519160,0.9173826,0.009813217,-0.020855375,0.3973386,0.34019232,0.013235991,9.738214,0.49600905,2.851801,1.342163,0
303535827,0.91747564,0.00977565,-0.02022917,0.39715725,0.48073134,-0.02071144,9.798984,1.1092157,4.714408,-0.5064911,0
303552494,0.91755515,0.009769788,-0.019945504,0.3969877,0.47839153,-0.010325014,9.842045,0.3763466,2.4660993,-0.37548214,0
303569161,0.9175552,0.009724001,-0.020081123,0.396982,0.44434044,-0.021263056,9.82464,-0.9919926,-0.069833025,0.9079381,0
303585828,0.9174673,0.009594949,-0.020364124,0.39717388,0.33162865,0.012537346,9.773651,-1.8863882,-0.7712624,2.416142,0
303602495,0.917451,0.009473302,-0.02037019,0.39721417,0.26875597,0.01532361,9.846396,-1.1093627,0.95547515,1.2446553,0
303619162,0.9174367,0.009451685,-0.020099264,0.39726165,0.38813552,0.053940002,9.963994,0.27889028,2.430178,1.2513918,0
303635829,0.91750836,0.009642992,-0.019661224,0.39711332,0.5601024,0.024664344,10.041013,2.0457954,2.901823,-0.25761253,0
303652496,0.91762435,0.009749595,-0.019414043,0.39685482,0.56645656,-0.13908216,9.809784,0.97246945,1.9279257,-1.0495061,0
303669163,0.9176766,0.00983946,-0.019662185,0.39671966,0.46264362,-0.0117502855,9.812505,-0.4636539,-1.1514062,-0.06269989,0
303685830,0.9176156,0.009792878,-0.020004133,0.3968445,0.30599347,-0.03435873,9.63998,-1.5376713,-1.368858,1.9129807,0
303702497,0.91759557,0.009495149,-0.020164875,0.39689,0.35630193,-0.059270494,9.487916,-2.641258,0.45989516,1.3210198,0
303719164,0.9175931,0.009032634,-0.02032262,0.39689857,0.2757989,-0.014177198,9.606086,-3.6788423,0.9285181,1.0638813,0
303735831,0.91762245,0.008555228,-0.020184025,0.396848,0.342171,0.12312879,9.820696,-2.9743514,2.8393404,0.5883301,0
303752498,0.9176734,0.008268142,-0.020044,0.39674354,0.45323187,0.05946995,9.941394,-1.7786227,2.3288667,0.16143045,0
303769165,0.91769856,0.008156378,-0.02017398,0.3966812,0.44257417,0.008276801,9.981434,-1.4016935,0.14599879,0.48917058,0
303785832,0.917664,0.00813223,-0.02051316,0.3967444,0.38311043,-0.020770159,9.984795,-1.3987607,-1.4141283,1.4437175,0
303802499,0.91760087,0.00805735,-0.02080439,0.396877,0.40632078,-0.064537376,9.925805,-1.5766537,-0.9733851,1.9637961,0
303819166,0.91752017,0.007962324,-0.021134017,0.3970478,0.38410246,-0.11818155,9.80416,-1.801879,-1.1610751,2.2584321,0
303835833,0.91759884,0.007783398,-0.021068586,0.39687318,0.40172407,-0.03996044,9.822208,-1.3116134,1.5644684,-0.36482728,0
303852500,0.91756254,0.007695591,-0.021130806,0.3969554,0.32847473,-0.03182745,9.800046,-1.0416684,0.507522,1.5632262,0
303869167,0.9176308,0.0076627694,-0.020757403,0.39681765,0.3317855,0.009709462,9.841045,0.4565528,3.1091707,-0.14152297,0
303885834,0.9177183,0.0076516015,-0.020131856,0.39664787,0.40992945,-0.04082835,9.886771,1.2755699,4.64186,-0.41218513,0
303902501,0.91782266,0.0077488185,-0.019532267,0.39643443,0.41824287,-0.03151476,9.975565,1.8817205,4.182548,-0.74845445,0
303919168,0.9178553,0.007949044,-0.019202933,0.39637083,0.4629226,-0.08133465,10.01683,1.8191229,2.1947591,0.39501828,0
303935835,0.9178833,0.008215353,-0.018992288,0.39631099,0.4922672,-0.09351586,10.002796,1.9135567,1.2653377,0.4281995,0
303952502,0.9179579,0.00851175,-0.01885141,0.39613828,0.502466,-0.13402088,9.893299,1.8960121,0.7429027,-0.41118625,0
303969169,0.91796654,0.008638879,-0.019226065,0.39609766,0.45099637,-0.14674094,9.742703,-0.5552449,-2.0504503,0.6542828,0
303985836,0.9179251,0.008701059,-0.019756325,0.3961663,0.11361248,0.03738362,9.700616,-1.3713934,-2.8557518,1.4972863,0
304002503,0.9178929,0.008712566,-0.019521734,0.3962522,0.08127154,0.1411701,9.737475,0.39384001,2.111479,1.5426335,0
304019170,0.9178998,0.008757945,-0.01872459,0.39627364,0.3305561,0.07024363,9.81071,2.1291003,5.570384,0.9906544,0
304035837,0.91782516,0.008761445,-0.018534552,0.3964553,0.48463574,-0.06659162,9.780638,0.23629634,1.8522016,2.2661538,0
304052504,0.9178014,0.0087637035,-0.018731577,0.396501,0.39758265,0.061038632,9.939523,-0.8469223,-0.5884646,1.2932557,0
304069171,0.9177375,0.008918425,-0.018927887,0.39663628,0.29926562,0.11316989,10.0190735,0.13096415,-0.9992411,1.9486336,0
304085838,0.91772634,0.009120842,-0.018855873,0.39666098,0.30210575,0.020773683,9.92452,1.1460339,0.5637163,1.0846018,0
304102505,0.9176816,0.009215998,-0.018976703,0.39675647,0.31755626,-0.09999396,9.768873,-0.04544974,-0.36048597,1.6487983,0
304119172,0.91768384,0.009237037,-0.019026887,0.39674813,0.39172208,-0.010868482,9.904233,-0.33683258,0.28697106,0.8701722,0
304135839,0.91765904,0.009434299,-0.01899899,0.39680216,0.36074865,0.07987402,9.922618,0.9980181,0.2993036,1.3095453,0
304152506,0.9176429,0.00964369,-0.01896659,0.396836,0.43806034,-0.030728435,9.806244,1.0834876,0.2944884,1.1558564,1
304169173,0.9176072,0.009864418,-0.019313894,0.3968966,0.47396347,-0.06091514,9.855657,0.12388223,-2.132795,1.4021095,0
304185840,0.91756606,0.010186072,-0.019656802,0.39696652,0.39013574,0.008299191,9.937914,0.7743295,-2.3804314,1.4624914,0
304202507,0.9176996,0.010471329,-0.019345196,0.39666563,0.36134103,0.01742285,9.881354,2.2686768,1.8456702,-1.3939582,0
304219174,0.9177928,0.010676317,-0.019150564,0.39645404,0.3870725,-0.036189824,9.748439,1.4581757,1.3273845,-0.7024026,0
304235841,0.9179246,0.010621283,-0.019092364,0.3961531,0.4777539,-0.061306924,9.662603,-0.56912696,1.1739004,-1.326994,0
304252508,0.91790557,0.01049888,-0.019486718,0.39618126,0.38141614,0.02883723,9.63536,-2.172623,-1.4944112,1.2029581,0
304269175,0.9179416,0.0103793405,-0.019625941,0.39609393,0.3970945,0.07194112,9.771431,-1.4789797,0.106939435,0.30634713,0
304285842,0.91796595,0.010406671,-0.019411745,0.39604738,0.30988953,0.10586239,9.799769,0.416725,1.9388237,0.5494116,0
304302509,0.91809005,0.010343611,-0.018886598,0.39578685,0.35841647,0.031684984,9.80439,0.65711296,4.14546,-1.0829688,0
304319176,0.91807204,0.010340935,-0.018751154,0.3958349,0.36568296,0.056606572,9.899812,0.028103534,1.5247304,1.2724452,0
304335843,0.91808045,0.01019379,-0.018667681,0.39582327,0.36509213,-0.058627293,9.795124,-1.0348682,1.5890437,0.84443146,0
304352510,0.9180725,0.0100579215,-0.018859128,0.39583614,0.4504809,-0.006836628,9.921952,-1.7075218,-0.17740636,1.0622802,0
304369177,0.9180509,0.009917803,-0.019150581,0.3958759,0.3043993,0.017580979,9.894373,-2.0020425,-0.79696476,1.2766203,0
304385844,0.9180434,0.00981756,-0.01929459,0.39588895,0.3449633,0.0038569788,9.839232,-1.3534263,0.025170883,1.0543406,0
304402511,0.9180475,0.009658195,-0.019259455,0.3958846,0.30159378,0.022943879,9.814083,-1.2421519,1.3172035,0.9082583,0
304419178,0.9181248,0.009516978,-0.019059964,0.3957186,0.38510355,0.03414989,9.849007,-0.70634705,2.3040287,-0.32357803,0
304435845,0.91824275,0.009421763,-0.01873411,0.39546263,0.429445,0.01672697,9.824417,-0.08667338,2.9758182,-1.0183481,0
304452512,0.91830057,0.009386029,-0.018871814,0.3953227,0.46686858,-0.009349424,9.878673,-0.9526388,-0.11243976,-0.09645744,0
304469179,0.9183758,0.009410079,-0.018842444,0.39514866,0.31625623,0.056299143,9.893324,-0.1266804,0.7800604,-0.38010526,0
304485846,0.91843146,0.009428411,-0.018725596,0.39502436,0.2790008,0.029488401,9.8572645,0.08262017,1.3485535,-0.018210629,0
304502513,0.918488,0.009475966,-0.018559143,0.39489973,0.40670675,0.008502942,9.914676,0.40170318,1.5825254,-0.027725745,0
304519180,0.9185279,0.009590009,-0.018458197,0.39480883,0.43726268,-0.0033177938,9.902509,0.64912176,0.9884645,0.22514203,0
304535847,0.9184551,0.009720508,-0.018719345,0.39496285,0.39566705,-0.0137578575,9.787355,-0.19121161,-1.3410424,2.099761,0
304552514,0.91850126,0.009846108,-0.018611478,0.39485735,0.34966424,0.019512825,9.7914095,0.7386383,1.0003872,0.11367557,0
304569181,0.91857386,0.0100881765,-0.018233363,0.39469996,0.38497284,0.08816191,9.882305,2.1993175,2.3907597,-0.3184683,0
304585848,0.91860473,0.010615281,-0.017574817,0.39464405,0.13433625,0.24503717,9.907167,4.775969,3.3901803,0.37998366,0
304602515,0.91881484,0.010725798,-0.016156645,0.3942125,0.38327762,-0.134478,9.580433,4.1474085,9.31207,-2.4839075,0
304619182,0.9188319,0.010589091,-0.01608081,0.3941795,0.50691575,-0.21146946,9.524681,-0.99374694,1.5103232,0.6846338,0
304635849,0.9187572,0.010310191,-0.016642075,0.3943377,0.35770375,0.06825565,9.822486,-3.5906067,-2.125022,2.201969,0
304652516,0.91880834,0.010149444,-0.01626761,0.3942381,0.22768003,0.16579017,9.950715,-0.3457074,3.461601,0.1526709,0
304669183,0.91888726,0.009996612,-0.015517745,0.39408824,0.23637632,0.09003568,9.818821,0.71413964,5.811041,-0.26733255,0
304685850,0.9188073,0.009999101,-0.015203955,0.3942867,0.32107016,0.10402549,9.913483,0.56197476,2.6420465,2.3768525,0
304702517,0.91881734,0.0099483775,-0.014825382,0.3942791,0.4166325,-0.042154472,9.843463,0.3735932,3.1909006,0.83125377,0
304719184,0.91881686,0.0098442715,-0.014943733,0.3942784,0.39799687,-0.05202256,9.858723,-1.3090906,0.1960076,0.9438855,0
304735851,0.91886806,0.009718061,-0.015101349,0.39415625,0.3494623,0.0005352304,9.956323,-1.5710957,0.005026492,0.042818032,0
304752518,0.91885763,0.009757467,-0.015426776,0.39416692,0.30538684,0.035074737,10.026265,-0.96159035,-1.501442,1.0427314,0
304769185,0.91884035,0.009826648,-0.015607288,0.39419836,0.20441581,0.064286515,9.934285,-0.3780434,-0.66599417,1.1792021,0
304785852,0.91885686,0.009920793,-0.015519437,0.3941609,0.32013714,0.12437633,9.977344,0.49737945,0.9604955,0.6308984,0
304802519,0.91884226,0.010236235,-0.015396246,0.39419165,0.35729054,0.11289779,9.950855,2.0004096,0.5854871,1.1208181,0
304819186,0.9188656,0.01047813,-0.015243687,0.39413688,0.37262055,0.02092774,9.73751,1.6036303,0.9683457,0.4827033,0
304835853,0.9188053,0.010553247,-0.015803924,0.39425355,0.43251312,-0.097401686,9.646964,-1.3574989,-3.0791721,1.8628185,0
304852520,0.9186821,0.010410233,-0.016638165,0.39451015,0.22632869,0.0037534963,9.647217,-3.4582272,-4.21539,2.9597464,0
304869187,0.9185827,0.010044291,-0.016971882,0.3947366,0.10843652,0.052156888,9.614589,-3.513768,-0.448901,2.6952436,0
304885854,0.9185332,0.009614161,-0.016757825,0.3948717,0.21280196,0.10042838,9.716742,-2.4467173,3.1843567,1.9510154,0
304902521,0.9185004,0.009501657,-0.0163004,0.39496982,0.417547,0.1280649,10.002243,0.21439749,3.8582523,1.6203296,0
304919188,0.91855574,0.009594015,-0.01577116,0.3948604,0.53871924,0.0072798533,10.040302,1.6741549,3.7518828,0.043150995,0
304935855,0.9184642,0.009550848,-0.016540807,0.39504293,0.5566324,-0.23002143,9.883451,-2.6666024,-4.079617,2.384664,0
304952522,0.9183201,0.009463497,-0.017723033,0.39532864,0.33861727,-0.03646901,10.050698,-4.050815,-6.564062,3.21134,0
304969189,0.91828334,0.009407108,-0.01812332,0.39539707,0.14579694,0.12463209,9.931248,-1.7634217,-1.7122731,1.4936367,0
304985856,0.9183527,0.009391169,-0.01777166,0.3952525,0.2209578,0.045561593,9.7467575,0.50273246,2.924349,-0.1942083,0
305002523,0.91841507,0.009400291,-0.01726799,0.39512974,0.36737257,0.040505122,9.697934,1.0771102,3.816632,-0.04940691,0
305019190,0.9184952,0.0093773985,-0.016842078,0.3949622,0.40290967,0.050653607,9.788321,0.6572538,3.4118867,-0.37188357,0
305035857,0.91850734,0.009352399,-0.01677746,0.39493725,0.41011205,-0.0046795784,9.782449,-0.31635526,1.1373767,0.7375498,0
305052524,0.91848475,0.009364163,-0.016978176,0.39498097,0.3426705,0.0906794,9.887999,-0.79440355,-0.6375513,1.2781059,0
305069191,0.9184338,0.009359432,-0.016859075,0.39510456,0.1961005,0.076865904,9.80844,-0.018902173,1.4286188,1.841342,0
305085858,0.91832805,0.009260436,-0.016745077,0.39535743,0.19521683,0.034257997,9.703481,-0.60951823,1.6543435,2.8165324,0
305102525,0.91819364,0.009115369,-0.01669826,0.39567512,0.30831406,0.0369186,9.787223,-1.073646,1.3560324,3.3158524,0
305119192,0.9180537,0.009101398,-0.016586624,0.3960047,0.27215537,0.14605525,9.961757,-0.0679761,1.4087434,3.3867738,0
305135859,0.91804177,0.009265932,-0.015943134,0.39605457,0.42120606,0.048444204,10.0302,2.466599,4.2768407,1.2161359,0
305152526,0.91803116,0.009461498,-0.0155424485,0.39609078,0.48060495,-0.06780539,9.904143,1.9998202,2.6591423,1.1388494,0
305169193,0.9179358,0.009589481,-0.015807847,0.39629826,0.38322806,-0.1315616,9.810328,-0.21684991,-1.3586769,2.5011888,0
305185860,0.9178676,0.009627191,-0.015928011,0.39645013,0.26166955,-0.03848894,9.801334,-0.39844397,-0.19685921,2.0767226,0
305202527,0.91785085,0.009625041,-0.015723323,0.39649704,0.35072896,-0.018242624,9.792265,0.22057018,1.9605563,1.2566168,0
305219194,0.9178835,0.009503781,-0.015507089,0.3964331,0.349172,-0.05649001,9.681558,-0.5148153,2.356029,0.43475634,0
305235861,0.9179157,0.00945614,-0.01545691,0.39636153,0.43785056,0.11308482,9.935154,-0.5034688,1.1070129,0.39098424,0
305252528,0.917922,0.009638002,-0.015474859,0.3963419,0.38842264,0.086486,9.937482,0.7664792,0.05235876,0.7692966,0
305269195,0.9180503,0.009779159,-0.015128657,0.39605457,0.28787774,0.013414821,9.83925,1.4653218,2.4567125,-1.2716066,0
305285862,0.9181144,0.009866434,-0.014903938,0.3959125,0.30722418,-0.034635197,9.786343,0.81383705,1.8398434,-0.16712286,0
305302529,0.9181043,0.009839909,-0.014957207,0.39593425,0.22594325,0.0007533551,9.778505,-0.63919055,0.39829668,1.1006994,0
305319196,0.9180666,0.00973407,-0.014956667,0.39602432,0.22889912,0.047377896,9.777778,-0.9845651,0.95544976,1.6102514,0
305335863,0.9180575,0.009506204,-0.014914016,0.39605263,0.27343628,0.104870535,9.819378,-1.6484077,1.5524433,1.1520015,0
305352530,0.91797894,0.009396439,-0.015193216,0.39622656,0.30507183,0.06659177,9.934322,-1.7598485,-0.79841185,2.2692404,0
305369197,0.91799027,0.0094582895,-0.015163444,0.3962002,0.2897067,0.1318582,10.1264715,0.13822532,0.6806766,0.72288644,0
305385864,0.9180512,0.009716226,-0.014812511,0.39606637,0.37592325,0.07064305,10.100167,2.2360973,2.171733,-0.13205907,0
305402531,0.9180628,0.010088412,-0.014789471,0.39603055,0.46086627,-0.06433202,9.961073,2.0776448,-0.20747566,0.6313467,0
305419198,0.9181079,0.010386336,-0.014939362,0.395913,0.35040927,-0.051948648,9.7442,1.1275927,-1.0989001,0.042869255,0
305435865,0.91813505,0.010563559,-0.015036153,0.39584166,0.21146114,0.011297239,9.608808,0.5163584,-0.4337126,0.39427546,0
305452532,0.91811424,0.010629807,-0.015017169,0.39588875,0.2912183,0.10289027,9.62767,0.14665191,0.6025836,1.2739308,0
305469199,0.9181641,0.010708172,-0.014687277,0.3957836,0.38473347,0.06672743,9.744413,1.0485775,2.5284536,0.09825673,0
305485866,0.9182165,0.01080256,-0.014580862,0.39566314,0.41442487,0.0436107,9.837098,0.53981966,1.073281,0.0069218324,0
305502533,0.91822463,0.010841142,-0.014723023,0.39563808,0.27904096,0.07059119,9.826603,-0.47579435,-0.34140447,0.75451815,0
305519200,0.91817427,0.010770884,-0.01504048,0.39574462,0.20601149,0.052899174,9.792631,-1.6220394,-1.1481917,1.7676283,0
305535867,0.9181621,0.010620449,-0.015106902,0.39577445,0.2136996,0.13292462,9.805491,-1.4559283,0.6528741,1.1700457,0
305552534,0.918082,0.010523517,-0.015063862,0.39596438,0.18934534,0.08199526,9.76211,-0.798668,1.2029325,2.3526611,0
305569201,0.91804665,0.010494927,-0.014813484,0.39605674,0.35595107,0.15242453,9.908576,0.1837263,2.3230398,1.5923735,0
305585868,0.9179426,0.010422871,-0.014731542,0.39630297,0.39534053,0.012258295,9.733698,-0.5287742,1.3823237,2.76719,0
305602535,0.9179409,0.010245785,-0.0149927605,0.39630187,0.3810773,-0.0031916006,9.859448,-2.1590097,-0.50436527,0.96241635,0
305619202,0.9178351,0.010038454,-0.015468119,0.39653364,0.32109314,-0.061395574,9.7512045,-2.9018295,-1.7678014,2.735161,0
305635869,0.91777474,0.00980005,-0.015642306,0.39667276,0.23163596,0.13772193,9.861108,-2.2897882,0.21593429,2.0082855,0
305652536,0.9177408,0.009630709,-0.015523267,0.39675966,0.31918538,0.0035270376,9.825823,-1.0618,1.8770458,1.5784785,0
305669203,0.9176907,0.009591584,-0.015342577,0.39688367,0.4502678,0.05302868,9.931721,-0.06688757,1.9115591,1.8391008,0
305685870,0.9177696,0.009688454,-0.015098692,0.39670816,0.42461368,-0.004845838,10.014188,0.9234979,1.9331634,-0.41995868,0
305702537,0.9179144,0.0097740535,-0.014811754,0.3963817,0.35166648,-0.06342162,9.910846,0.9498533,2.2325115,-1.5543451,0
305719204,0.9180355,0.009766684,-0.01495725,0.39609593,0.31823486,-0.087094046,9.858341,-0.8095406,-0.2428724,-1.1945506,0
305735871,0.91810524,0.009638619,-0.015210836,0.3959273,0.22263756,0.0028929932,9.814553,-1.8501204,-0.59371513,-0.2958523,0
305752538,0.91812104,0.0095318,-0.015183086,0.39589456,0.20299017,0.08601575,9.779013,-0.93236643,1.1275159,0.68825805,0
305769205,0.9181681,0.009488156,-0.01484553,0.39579922,0.32259667,0.07974411,9.785128,0.30116048,2.9102619,0.18198463,0
305785872,0.91821384,0.009585308,-0.014329769,0.39570987,0.34433487,0.120180026,9.871802,1.675551,3.6523778,0.19531608,0
305802539,0.91828775,0.009680048,-0.013798175,0.3955551,0.33000994,0.061819416,9.823165,1.6950676,3.7573507,-0.29418746,0
305819206,0.9182876,0.009631671,-0.013826085,0.39555544,0.37632978,-0.07640556,9.732168,-0.71045774,0.6174901,0.93726474,0
305835873,0.91832244,0.009380061,-0.014063233,0.3954721,0.25594404,-0.0063366313,9.828476,-2.5727952,-0.1529078,0.34702003,0
305852540,0.91835433,0.0091957245,-0.013929224,0.39540735,0.16513322,0.104716815,9.8418045,-1.1368837,2.0084646,0.44196633,0
305869207,0.91831064,0.009106147,-0.013743951,0.39551747,0.23361996,0.0684415,9.849591,-0.37762085,2.078157,1.7389551,0
